Time,Device name,Chip Time(),Acceleration X(g),Acceleration Y(g),Acceleration Z(g),Angular velocity X(°/s),Angular velocity Y(°/s),Angular velocity Z(°/s),ShiftX(mm),ShiftY(mm),ShiftZ(mm),SpeedX(mm/s),SpeedY(mm/s),SpeedZ(mm/s),Angle X(°),Angle Y(°),Angle Z(°),Magnetic field X(ʯt),Magnetic field Y(ʯt),Magnetic field Z(ʯt),Temperature(℃),Quaternions 0(),Quaternions 1(),Quaternions 2(),Quaternions 3(),Raw power(),Power Percent(%)()
 11:49:54.207,d2:03:b8:43:8d:44, 2015-01-01 00:04:48.780, -0.124, 0.979, -0.16, -0.427, 0.061, 0, , , , , , , 99.108, 7.136, 8.383, 0.000, 0.000, 0.000,, 0.64917, 0.75452, 0.09579, 6E-05,,,
 11:49:54.257,d2:03:b8:43:8d:44, 2015-01-01 00:04:48.780, -0.121, 0.977, -0.157, -0.427, 0.061, 0.244, , , , , , , 99.108, 7.136, 8.383, 0.000, 0.000, 0.000,, 0.64917, 0.75452, 0.09579, 6E-05,,,
 11:49:54.257,d2:03:b8:43:8d:44, 2015-01-01 00:04:48.780, -0.12, 0.977, -0.156, -0.427, 0.061, 0, , , , , , , 99.108, 7.136, 8.383, 0.000, 0.000, 0.000,, 0.64917, 0.75452, 0.09579, 6E-05,,,
 11:49:54.258,d2:03:b8:43:8d:44, 2015-01-01 00:04:48.780, -0.124, 0.98, -0.156, -0.244, 0.183, -0.244, , , , , , , 99.108, 7.136, 8.383, 0.000, 0.000, 0.000,, 0.64917, 0.75452, 0.09579, 6E-05,,,
 11:49:54.274,d2:03:b8:43:8d:44, 2015-01-01 00:04:48.780, -0.121, 0.979, -0.156, -0.305, 0.122, 0.854, , , , , , , 99.108, 7.136, 8.383, 0.000, 0.000, 0.000,, 0.64917, 0.75452, 0.09579, 6E-05,,,
 11:49:54.274,d2:03:b8:43:8d:44, 2015-01-01 00:04:48.780, -0.123, 0.977, -0.154, -0.061, 0.305, 0.671, , , , , , , 99.108, 7.136, 8.383, 0.000, 0.000, 0.000,, 0.64917, 0.75452, 0.09579, 6E-05,,,
 11:49:54.274,d2:03:b8:43:8d:44, 2015-01-01 00:04:48.780, -0.128, 0.976, -0.155, 0.122, 0.122, 0.183, , , , , , , 99.108, 7.136, 8.383, 0.000, 0.000, 0.000,, 0.64917, 0.75452, 0.09579, 6E-05,,,
 11:49:54.275,d2:03:b8:43:8d:44, 2015-01-01 00:04:48.780, -0.128, 0.979, -0.155, 0.366, 0.122, -0.122, , , , , , , 99.108, 7.136, 8.383, 0.000, 0.000, 0.000,, 0.64917, 0.75452, 0.09579, 6E-05,,,
 11:49:54.275,d2:03:b8:43:8d:44, 2015-01-01 00:04:48.780, -0.123, 0.977, -0.157, 0.366, 0.061, 0.549, , , , , , , 99.108, 7.136, 8.383, 0.000, 0.000, 0.000,, 0.64917, 0.75452, 0.09579, 6E-05,,,
 11:49:54.275,d2:03:b8:43:8d:44, 2015-01-01 00:04:48.780, -0.121, 0.975, -0.158, 0.549, 0.061, -0.061, , , , , , , 99.108, 7.136, 8.383, 0.000, 0.000, 0.000,, 0.64917, 0.75452, 0.09579, 6E-05,,,
 11:49:54.275,d2:03:b8:43:8d:44, 2015-01-01 00:04:48.780, -0.125, 0.977, -0.16, 0.549, 0.061, -0.61, , , , , , , 99.108, 7.136, 8.383, 0.000, 0.000, 0.000,, 0.64917, 0.75452, 0.09579, 6E-05,,,
 11:49:54.276,d2:03:b8:43:8d:44, 2015-01-01 00:04:48.780, -0.122, 0.979, -0.16, 0.549, 0, -0.427, , , , , , , 99.108, 7.136, 8.383, 0.000, 0.000, 0.000,, 0.64917, 0.75452, 0.09579, 6E-05,,,
 11:49:54.276,d2:03:b8:43:8d:44, 2015-01-01 00:04:48.780, -0.121, 0.978, -0.16, 0.366, 0.061, 0.122, , , , , , , 99.108, 7.136, 8.383, 0.000, 0.000, 0.000,, 0.64917, 0.75452, 0.09579, 6E-05,,,
 11:49:54.276,d2:03:b8:43:8d:44, 2015-01-01 00:04:48.780, -0.121, 0.977, -0.16, 0.122, 0.061, 0.244, , , , , , , 99.108, 7.136, 8.383, 0.000, 0.000, 0.000,, 0.64917, 0.75452, 0.09579, 6E-05,,,
 11:49:54.277,d2:03:b8:43:8d:44, 2015-01-01 00:04:48.780, -0.127, 0.978, -0.16, -0.183, 0.366, -0.305, , , , , , , 99.108, 7.136, 8.383, 0.000, 0.000, 0.000,, 0.64917, 0.75452, 0.09579, 6E-05,,,
 11:49:54.277,d2:03:b8:43:8d:44, 2015-01-01 00:04:48.780, -0.128, 0.978, -0.157, -0.305, 0.122, 0, , , , , , , 99.108, 7.136, 8.383, 0.000, 0.000, 0.000,, 0.64917, 0.75452, 0.09579, 6E-05,,,
 11:49:54.277,d2:03:b8:43:8d:44, 2015-01-01 00:04:48.780, -0.128, 0.977, -0.157, -0.366, 0.122, -0.061, , , , , , , 99.108, 7.136, 8.383, 0.000, 0.000, 0.000,, 0.64917, 0.75452, 0.09579, 6E-05,,,
 11:49:54.277,d2:03:b8:43:8d:44, 2015-01-01 00:04:48.780, -0.127, 0.977, -0.156, -0.427, 0, 0, , , , , , , 99.113, 7.136, 8.383, 0.000, 0.000, 0.000,, 0.64917, 0.75452, 0.09579, 6E-05,,,
 11:49:54.278,d2:03:b8:43:8d:44, 2015-01-01 00:04:48.780, -0.125, 0.977, -0.156, -0.427, 0.061, -0.549, , , , , , , 99.113, 7.136, 8.383, 0.000, 0.000, 0.000,, 0.64917, 0.75452, 0.09579, 6E-05,,,
 11:49:54.278,d2:03:b8:43:8d:44, 2015-01-01 00:04:48.780, -0.124, 0.978, -0.155, -0.366, 0.122, -0.244, , , , , , , 99.113, 7.136, 8.383, 0.000, 0.000, 0.000,, 0.64917, 0.75452, 0.09579, 6E-05,,,
 11:49:54.278,d2:03:b8:43:8d:44, 2015-01-01 00:04:48.780, -0.12, 0.978, -0.154, -0.122, 0, -0.061, , , , , , , 99.113, 7.136, 8.383, 0.000, 0.000, 0.000,, 0.64917, 0.75452, 0.09579, 6E-05,,,
 11:49:54.278,d2:03:b8:43:8d:44, 2015-01-01 00:04:48.780, -0.123, 0.979, -0.156, 0.122, 0.122, 0.183, , , , , , , 99.113, 7.136, 8.383, 0.000, 0.000, 0.000,, 0.64917, 0.75452, 0.09579, 6E-05,,,
 11:49:54.279,d2:03:b8:43:8d:44, 2015-01-01 00:04:48.780, -0.121, 0.978, -0.157, 0.366, 0.122, 0.549, , , , , , , 99.113, 7.136, 8.383, 0.000, 0.000, 0.000,, 0.64917, 0.75452, 0.09579, 6E-05,,,
 11:49:54.279,d2:03:b8:43:8d:44, 2015-01-01 00:04:48.780, -0.125, 0.979, -0.158, 0.549, 0.244, 0.61, , , , , , , 99.113, 7.136, 8.383, 0.000, 0.000, 0.000,, 0.64917, 0.75452, 0.09579, 6E-05,,,
 11:49:54.445,d2:03:b8:43:8d:44, 2015-01-01 00:04:48.780, -0.124, 0.976, -0.159, 0.732, 0.305, 0.732, , , , , , , 99.113, 7.136, 8.383, 0.000, 0.000, 0.000,, 0.64914, 0.75455, 0.09579, 6E-05,,,
 11:49:54.501,d2:03:b8:43:8d:44, 2015-01-01 00:04:49.225, -0.126, 0.977, -0.159, 0.793, 0.366, 0.244, , , , , , , 99.113, 7.136, 8.383, 0.000, 0.000, 0.000,, 0.64914, 0.75455, 0.09579, 6E-05,,,
 11:49:54.501,d2:03:b8:43:8d:44, 2015-01-01 00:04:49.225, -0.125, 0.977, -0.16, 0.671, 0.183, 0.244, , , , , , , 99.113, 7.136, 8.383, 0.000, 0.000, 0.000,, 0.64914, 0.75455, 0.09579, 6E-05,,,
 11:49:54.502,d2:03:b8:43:8d:44, 2015-01-01 00:04:49.225, -0.124, 0.977, -0.161, 0.488, 0.122, -0.061, , , , , , , 99.113, 7.136, 8.383, 0.000, 0.000, 0.000,, 0.64914, 0.75455, 0.09579, 6E-05,,,
 11:49:54.518,d2:03:b8:43:8d:44, 2015-01-01 00:04:49.225, -0.122, 0.977, -0.161, 0.061, 0.122, -0.061, , , , , , , 99.113, 7.136, 8.383, 0.000, 0.000, 0.000,, 0.64914, 0.75455, 0.09579, 6E-05,,,
 11:49:54.518,d2:03:b8:43:8d:44, 2015-01-01 00:04:49.225, -0.12, 0.979, -0.159, -0.244, 0.122, -0.427, , , , , , , 99.113, 7.136, 8.383, 0.000, 0.000, 0.000,, 0.64914, 0.75455, 0.09579, 6E-05,,,
 11:49:54.518,d2:03:b8:43:8d:44, 2015-01-01 00:04:49.225, -0.122, 0.98, -0.158, -0.61, 0.183, -0.122, , , , , , , 99.113, 7.136, 8.383, 0.000, 0.000, 0.000,, 0.64914, 0.75455, 0.09579, 6E-05,,,
 11:49:54.518,d2:03:b8:43:8d:44, 2015-01-01 00:04:49.225, -0.122, 0.978, -0.156, -0.793, 0.061, -0.122, , , , , , , 99.113, 7.136, 8.383, 0.000, 0.000, 0.000,, 0.64914, 0.75455, 0.09579, 6E-05,,,
 11:49:54.518,d2:03:b8:43:8d:44, 2015-01-01 00:04:49.225, -0.126, 0.978, -0.156, -0.854, 0.061, -0.122, , , , , , , 99.113, 7.136, 8.383, 0.000, 0.000, 0.000,, 0.64914, 0.75455, 0.09579, 6E-05,,,
 11:49:54.519,d2:03:b8:43:8d:44, 2015-01-01 00:04:49.225, -0.127, 0.977, -0.155, -0.732, 0, -0.122, , , , , , , 99.113, 7.136, 8.383, 0.000, 0.000, 0.000,, 0.64914, 0.75455, 0.09579, 6E-05,,,
 11:49:54.519,d2:03:b8:43:8d:44, 2015-01-01 00:04:49.225, -0.13, 0.977, -0.154, -0.366, -0.061, -0.427, , , , , , , 99.113, 7.136, 8.383, 0.000, 0.000, 0.000,, 0.64914, 0.75455, 0.09579, 6E-05,,,
 11:49:54.519,d2:03:b8:43:8d:44, 2015-01-01 00:04:49.225, -0.125, 0.976, -0.154, 0, -0.061, -0.061, , , , , , , 99.113, 7.136, 8.383, 0.000, 0.000, 0.000,, 0.64914, 0.75455, 0.09579, 6E-05,,,
 11:49:54.519,d2:03:b8:43:8d:44, 2015-01-01 00:04:49.225, -0.125, 0.977, -0.155, 0.366, 0, -0.488, , , , , , , 99.113, 7.136, 8.383, 0.000, 0.000, 0.000,, 0.64914, 0.75455, 0.09579, 6E-05,,,
 11:49:54.520,d2:03:b8:43:8d:44, 2015-01-01 00:04:49.225, -0.125, 0.977, -0.156, 0.732, 0, -0.305, , , , , , , 99.113, 7.136, 8.383, 0.000, 0.000, 0.000,, 0.64914, 0.75455, 0.09579, 6E-05,,,
 11:49:54.520,d2:03:b8:43:8d:44, 2015-01-01 00:04:49.225, -0.124, 0.979, -0.157, 0.793, 0, -0.183, , , , , , , 99.113, 7.136, 8.383, 0.000, 0.000, 0.000,, 0.64914, 0.75455, 0.09579, 6E-05,,,
 11:49:54.520,d2:03:b8:43:8d:44, 2015-01-01 00:04:49.225, -0.123, 0.979, -0.159, 0.732, 0.061, 0.427, , , , , , , 99.113, 7.136, 8.383, 0.000, 0.000, 0.000,, 0.64914, 0.75455, 0.09579, 6E-05,,,
 11:49:54.520,d2:03:b8:43:8d:44, 2015-01-01 00:04:49.225, -0.123, 0.979, -0.159, 0.61, 0.183, 0.305, , , , , , , 99.113, 7.136, 8.383, 0.000, 0.000, 0.000,, 0.64914, 0.75455, 0.09579, 6E-05,,,
 11:49:54.521,d2:03:b8:43:8d:44, 2015-01-01 00:04:49.225, -0.124, 0.979, -0.16, 0.427, 0.366, 0.671, , , , , , , 99.113, 7.136, 8.383, 0.000, 0.000, 0.000,, 0.64914, 0.75455, 0.09579, 6E-05,,,
 11:49:54.521,d2:03:b8:43:8d:44, 2015-01-01 00:04:49.225, -0.125, 0.978, -0.16, 0.183, 0.427, 0.488, , , , , , , 99.113, 7.136, 8.383, 0.000, 0.000, 0.000,, 0.64914, 0.75455, 0.09579, 6E-05,,,
 11:49:54.521,d2:03:b8:43:8d:44, 2015-01-01 00:04:49.225, -0.127, 0.978, -0.159, -0.061, 0.305, 0.61, , , , , , , 99.113, 7.136, 8.383, 0.000, 0.000, 0.000,, 0.64914, 0.75455, 0.09579, 6E-05,,,
 11:49:54.522,d2:03:b8:43:8d:44, 2015-01-01 00:04:49.225, -0.123, 0.975, -0.159, -0.183, 0.183, 0.793, , , , , , , 99.113, 7.136, 8.383, 0.000, 0.000, 0.000,, 0.64914, 0.75455, 0.09579, 6E-05,,,
 11:49:54.522,d2:03:b8:43:8d:44, 2015-01-01 00:04:49.225, -0.126, 0.977, -0.159, -0.305, 0.305, -0.122, , , , , , , 99.113, 7.136, 8.383, 0.000, 0.000, 0.000,, 0.64914, 0.75455, 0.09579, 6E-05,,,
 11:49:54.522,d2:03:b8:43:8d:44, 2015-01-01 00:04:49.225, -0.125, 0.978, -0.157, -0.366, 0.061, -0.305, , , , , , , 99.113, 7.136, 8.383, 0.000, 0.000, 0.000,, 0.64914, 0.75455, 0.09579, 6E-05,,,
 11:49:54.522,d2:03:b8:43:8d:44, 2015-01-01 00:04:49.225, -0.12, 0.979, -0.156, -0.366, 0, -0.122, , , , , , , 99.113, 7.136, 8.383, 0.000, 0.000, 0.000,, 0.64914, 0.75455, 0.09579, 6E-05,,,
 11:49:54.668,d2:03:b8:43:8d:44, 2015-01-01 00:04:49.225, -0.119, 0.978, -0.156, -0.305, 0, 0.122, , , , , , , 99.113, 7.136, 8.383, 0.000, 0.000, 0.000,, 0.64914, 0.75455, 0.09579, 6E-05,,,
 11:49:54.735,d2:03:b8:43:8d:44, 2015-01-01 00:04:49.225, -0.124, 0.978, -0.155, -0.122, 0, -0.671, , , , , , , 99.113, 7.136, 8.383, 0.000, 0.000, 0.000,, 0.64914, 0.75455, 0.09579, 6E-05,,,
 11:49:54.735,d2:03:b8:43:8d:44, 2015-01-01 00:04:49.225, -0.126, 0.979, -0.155, 0, 0, -0.122, , , , , , , 99.113, 7.136, 8.383, 0.000, 0.000, 0.000,, 0.64914, 0.75455, 0.09579, 6E-05,,,
 11:49:54.736,d2:03:b8:43:8d:44, 2015-01-01 00:04:49.225, -0.124, 0.977, -0.155, 0.061, 0.061, 0, , , , , , , 99.113, 7.136, 8.383, 0.000, 0.000, 0.000,, 0.64914, 0.75455, 0.09579, 6E-05,,,
 11:49:54.752,d2:03:b8:43:8d:44, 2015-01-01 00:04:49.225, -0.128, 0.977, -0.156, 0.244, 0, -0.183, , , , , , , 99.113, 7.136, 8.383, 0.000, 0.000, 0.000,, 0.64914, 0.75455, 0.09579, 6E-05,,,
 11:49:54.752,d2:03:b8:43:8d:44, 2015-01-01 00:04:49.225, -0.127, 0.978, -0.157, 0.427, 0, -0.488, , , , , , , 99.113, 7.136, 8.383, 0.000, 0.000, 0.000,, 0.64908, 0.75458, 0.09583, 6E-05,,,
 11:49:54.752,d2:03:b8:43:8d:44, 2015-01-01 00:04:49.225, -0.128, 0.977, -0.158, 0.427, 0.183, -0.305, , , , , , , 99.113, 7.136, 8.383, 0.000, 0.000, 0.000,, 0.64908, 0.75458, 0.09583, 6E-05,,,
 11:49:54.752,d2:03:b8:43:8d:44, 2015-01-01 00:04:49.225, -0.123, 0.977, -0.159, 0.549, 0, 0, , , , , , , 99.113, 7.136, 8.383, 0.000, 0.000, 0.000,, 0.64908, 0.75458, 0.09583, 6E-05,,,
 11:49:54.753,d2:03:b8:43:8d:44, 2015-01-01 00:04:49.225, -0.123, 0.978, -0.16, 0.549, 0.122, -0.122, , , , , , , 99.113, 7.136, 8.383, 0.000, 0.000, 0.000,, 0.64908, 0.75458, 0.09583, 6E-05,,,
 11:49:54.753,d2:03:b8:43:8d:44, 2015-01-01 00:04:49.225, -0.121, 0.979, -0.162, 0.305, 0.183, 0.305, , , , , , , 99.113, 7.136, 8.383, 0.000, 0.000, 0.000,, 0.64908, 0.75458, 0.09583, 6E-05,,,
 11:49:54.753,d2:03:b8:43:8d:44, 2015-01-01 00:04:49.225, -0.122, 0.979, -0.16, 0.122, 0.244, 0.366, , , , , , , 99.113, 7.136, 8.383, 0.000, 0.000, 0.000,, 0.64908, 0.75458, 0.09583, 6E-05,,,
 11:49:54.753,d2:03:b8:43:8d:44, 2015-01-01 00:04:49.225, -0.123, 0.978, -0.16, 0, 0.244, 0.732, , , , , , , 99.113, 7.136, 8.383, 0.000, 0.000, 0.000,, 0.64908, 0.75458, 0.09583, 6E-05,,,
 11:49:54.754,d2:03:b8:43:8d:44, 2015-01-01 00:04:49.225, -0.125, 0.978, -0.159, -0.061, 0.366, 0.488, , , , , , , 99.113, 7.136, 8.383, 0.000, 0.000, 0.000,, 0.64908, 0.75458, 0.09583, 6E-05,,,
 11:49:54.754,d2:03:b8:43:8d:44, 2015-01-01 00:04:49.225, -0.126, 0.977, -0.158, -0.183, 0.183, 0.671, , , , , , , 99.119, 7.136, 8.383, 0.000, 0.000, 0.000,, 0.64908, 0.75458, 0.09583, 6E-05,,,
 11:49:54.754,d2:03:b8:43:8d:44, 2015-01-01 00:04:49.225, -0.125, 0.976, -0.157, -0.244, 0.183, 0.183, , , , , , , 99.119, 7.136, 8.383, 0.000, 0.000, 0.000,, 0.64908, 0.75458, 0.09583, 6E-05,,,
 11:49:54.755,d2:03:b8:43:8d:44, 2015-01-01 00:04:49.225, -0.125, 0.977, -0.156, -0.366, 0.183, -0.061, , , , , , , 99.119, 7.136, 8.383, 0.000, 0.000, 0.000,, 0.64908, 0.75458, 0.09583, 6E-05,,,
 11:49:54.755,d2:03:b8:43:8d:44, 2015-01-01 00:04:49.225, -0.122, 0.977, -0.155, -0.366, 0.061, -0.366, , , , , , , 99.119, 7.136, 8.383, 0.000, 0.000, 0.000,, 0.64908, 0.75458, 0.09583, 6E-05,,,
 11:49:54.755,d2:03:b8:43:8d:44, 2015-01-01 00:04:49.225, -0.124, 0.979, -0.154, -0.305, -0.061, -0.427, , , , , , , 99.119, 7.136, 8.383, 0.000, 0.000, 0.000,, 0.64908, 0.75458, 0.09583, 6E-05,,,
 11:49:54.755,d2:03:b8:43:8d:44, 2015-01-01 00:04:49.225, -0.121, 0.978, -0.154, -0.122, -0.122, -0.305, , , , , , , 99.119, 7.136, 8.383, 0.000, 0.000, 0.000,, 0.64908, 0.75458, 0.09583, 6E-05,,,
 11:49:54.756,d2:03:b8:43:8d:44, 2015-01-01 00:04:49.225, -0.124, 0.978, -0.154, 0, 0, -0.427, , , , , , , 99.119, 7.136, 8.383, 0.000, 0.000, 0.000,, 0.64908, 0.75458, 0.09583, 6E-05,,,
 11:49:54.756,d2:03:b8:43:8d:44, 2015-01-01 00:04:49.225, -0.123, 0.978, -0.155, 0.122, 0, -0.061, , , , , , , 99.119, 7.136, 8.383, 0.000, 0.000, 0.000,, 0.64908, 0.75458, 0.09583, 6E-05,,,
 11:49:54.756,d2:03:b8:43:8d:44, 2015-01-01 00:04:49.225, -0.126, 0.978, -0.157, 0.366, 0.122, -0.122, , , , , , , 99.119, 7.136, 8.383, 0.000, 0.000, 0.000,, 0.64908, 0.75458, 0.09583, 6E-05,,,
 11:49:54.756,d2:03:b8:43:8d:44, 2015-01-01 00:04:49.225, -0.126, 0.976, -0.158, 0.549, 0.061, 0.122, , , , , , , 99.119, 7.136, 8.383, 0.000, 0.000, 0.000,, 0.64908, 0.75458, 0.09583, 6E-05,,,
 11:49:54.757,d2:03:b8:43:8d:44, 2015-01-01 00:04:49.225, -0.127, 0.977, -0.16, 0.732, 0.122, -0.061, , , , , , , 99.119, 7.136, 8.383, 0.000, 0.000, 0.000,, 0.64908, 0.75458, 0.09583, 6E-05,,,
 11:49:54.939,d2:03:b8:43:8d:44, 2015-01-01 00:04:49.640, -0.125, 0.976, -0.161, 0.732, 0.122, 0.244, , , , , , , 99.119, 7.136, 8.383, 0.000, 0.000, 0.000,, 0.64908, 0.75458, 0.09583, 6E-05,,,
 11:49:55.018,d2:03:b8:43:8d:44, 2015-01-01 00:04:49.640, -0.122, 0.976, -0.161, 0.549, 0.122, 0, , , , , , , 99.119, 7.136, 8.383, 0.000, 0.000, 0.000,, 0.64908, 0.75458, 0.09583, 6E-05,,,
 11:49:55.018,d2:03:b8:43:8d:44, 2015-01-01 00:04:49.640, -0.124, 0.978, -0.161, 0.305, 0.244, 0, , , , , , , 99.119, 7.136, 8.383, 0.000, 0.000, 0.000,, 0.64908, 0.75458, 0.09583, 6E-05,,,
 11:49:55.019,d2:03:b8:43:8d:44, 2015-01-01 00:04:49.640, -0.121, 0.979, -0.16, 0, 0.183, 0.122, , , , , , , 99.119, 7.136, 8.383, 0.000, 0.000, 0.000,, 0.64908, 0.75458, 0.09583, 6E-05,,,
 11:49:55.148,d2:03:b8:43:8d:44, 2015-01-01 00:04:49.640, -0.122, 0.979, -0.159, -0.305, 0.305, 0.427, , , , , , , 99.119, 7.136, 8.383, 0.000, 0.000, 0.000,, 0.64908, 0.75458, 0.09583, 6E-05,,,
 11:49:55.173,d2:03:b8:43:8d:44, 2015-01-01 00:04:49.640, -0.122, 0.978, -0.158, -0.488, 0.183, 0.488, , , , , , , 99.119, 7.136, 8.383, 0.000, 0.000, 0.000,, 0.64908, 0.75458, 0.09583, 6E-05,,,
 11:49:55.174,d2:03:b8:43:8d:44, 2015-01-01 00:04:49.640, -0.126, 0.978, -0.156, -0.671, 0.183, 0.061, , , , , , , 99.119, 7.136, 8.383, 0.000, 0.000, 0.000,, 0.64905, 0.75464, 0.09583, 3E-05,,,
 11:49:55.174,d2:03:b8:43:8d:44, 2015-01-01 00:04:49.640, -0.124, 0.977, -0.156, -0.732, 0.122, 0.366, , , , , , , 99.124, 7.141, 8.383, 0.000, 0.000, 0.000,, 0.64905, 0.75464, 0.09583, 3E-05,,,
 11:49:55.174,d2:03:b8:43:8d:44, 2015-01-01 00:04:49.640, -0.125, 0.977, -0.155, -0.549, 0.183, 0, , , , , , , 99.124, 7.141, 8.383, 0.000, 0.000, 0.000,, 0.64905, 0.75464, 0.09583, 3E-05,,,
 11:49:55.175,d2:03:b8:43:8d:44, 2015-01-01 00:04:49.640, -0.125, 0.976, -0.154, -0.244, 0, -0.122, , , , , , , 99.124, 7.141, 8.383, 0.000, 0.000, 0.000,, 0.64905, 0.75464, 0.09583, 3E-05,,,
 11:49:55.175,d2:03:b8:43:8d:44, 2015-01-01 00:04:49.640, -0.125, 0.977, -0.155, 0.061, 0, -0.61, , , , , , , 99.124, 7.141, 8.383, 0.000, 0.000, 0.000,, 0.64905, 0.75464, 0.09583, 3E-05,,,
 11:49:55.175,d2:03:b8:43:8d:44, 2015-01-01 00:04:49.640, -0.124, 0.977, -0.155, 0.366, -0.061, -0.122, , , , , , , 99.124, 7.141, 8.383, 0.000, 0.000, 0.000,, 0.64905, 0.75464, 0.09583, 3E-05,,,
 11:49:55.176,d2:03:b8:43:8d:44, 2015-01-01 00:04:49.640, -0.121, 0.978, -0.156, 0.61, 0, -0.366, , , , , , , 99.124, 7.141, 8.383, 0.000, 0.000, 0.000,, 0.64905, 0.75464, 0.09583, 3E-05,,,
 11:49:55.176,d2:03:b8:43:8d:44, 2015-01-01 00:04:49.640, -0.124, 0.979, -0.158, 0.671, 0.061, -0.305, , , , , , , 99.124, 7.141, 8.383, 0.000, 0.000, 0.000,, 0.64905, 0.75464, 0.09583, 3E-05,,,
 11:49:55.176,d2:03:b8:43:8d:44, 2015-01-01 00:04:49.640, -0.123, 0.979, -0.159, 0.732, 0.122, 0, , , , , , , 99.124, 7.141, 8.383, 0.000, 0.000, 0.000,, 0.64905, 0.75464, 0.09583, 3E-05,,,
 11:49:55.176,d2:03:b8:43:8d:44, 2015-01-01 00:04:49.640, -0.125, 0.978, -0.159, 0.549, 0.244, 0.244, , , , , , , 99.124, 7.141, 8.383, 0.000, 0.000, 0.000,, 0.64905, 0.75464, 0.09583, 3E-05,,,
 11:49:55.177,d2:03:b8:43:8d:44, 2015-01-01 00:04:49.640, -0.124, 0.977, -0.16, 0.427, 0.122, 0.305, , , , , , , 99.124, 7.141, 8.383, 0.000, 0.000, 0.000,, 0.64905, 0.75464, 0.09583, 3E-05,,,
 11:49:55.177,d2:03:b8:43:8d:44, 2015-01-01 00:04:49.640, -0.128, 0.979, -0.16, 0.183, 0.305, 0, , , , , , , 99.124, 7.141, 8.383, 0.000, 0.000, 0.000,, 0.64905, 0.75464, 0.09583, 3E-05,,,
 11:49:55.177,d2:03:b8:43:8d:44, 2015-01-01 00:04:49.640, -0.124, 0.977, -0.16, -0.061, 0.122, 0.366, , , , , , , 99.124, 7.141, 8.383, 0.000, 0.000, 0.000,, 0.64905, 0.75464, 0.09583, 3E-05,,,
 11:49:55.177,d2:03:b8:43:8d:44, 2015-01-01 00:04:49.640, -0.123, 0.978, -0.159, -0.305, 0.305, 0.183, , , , , , , 99.124, 7.141, 8.383, 0.000, 0.000, 0.000,, 0.64905, 0.75464, 0.09583, 3E-05,,,
 11:49:55.177,d2:03:b8:43:8d:44, 2015-01-01 00:04:49.640, -0.123, 0.978, -0.158, -0.366, 0.183, 0.122, , , , , , , 99.124, 7.141, 8.383, 0.000, 0.000, 0.000,, 0.64905, 0.75464, 0.09583, 3E-05,,,
 11:49:55.177,d2:03:b8:43:8d:44, 2015-01-01 00:04:49.640, -0.123, 0.979, -0.157, -0.427, 0.122, -0.122, , , , , , , 99.124, 7.141, 8.383, 0.000, 0.000, 0.000,, 0.64905, 0.75464, 0.09583, 3E-05,,,
 11:49:55.177,d2:03:b8:43:8d:44, 2015-01-01 00:04:49.640, -0.123, 0.979, -0.156, -0.427, 0.061, 0.305, , , , , , , 99.124, 7.141, 8.383, 0.000, 0.000, 0.000,, 0.64905, 0.75464, 0.09583, 3E-05,,,
 11:49:55.207,d2:03:b8:43:8d:44, 2015-01-01 00:04:49.640, -0.121, 0.978, -0.155, -0.366, 0.061, 0.061, , , , , , , 99.124, 7.141, 8.383, 0.000, 0.000, 0.000,, 0.64905, 0.75464, 0.09583, 3E-05,,,
 11:49:55.223,d2:03:b8:43:8d:44, 2015-01-01 00:04:49.640, -0.125, 0.978, -0.155, -0.183, 0.183, 0, , , , , , , 99.124, 7.141, 8.383, 0.000, 0.000, 0.000,, 0.64905, 0.75464, 0.09583, 3E-05,,,
 11:49:55.223,d2:03:b8:43:8d:44, 2015-01-01 00:04:49.640, -0.125, 0.977, -0.155, 0, 0.061, -0.183, , , , , , , 99.124, 7.141, 8.383, 0.000, 0.000, 0.000,, 0.64905, 0.75464, 0.09583, 3E-05,,,
 11:49:55.223,d2:03:b8:43:8d:44, 2015-01-01 00:04:49.640, -0.128, 0.978, -0.154, 0.183, 0.122, 0, , , , , , , 99.124, 7.141, 8.383, 0.000, 0.000, 0.000,, 0.64905, 0.75464, 0.09583, 3E-05,,,
 11:49:55.223,d2:03:b8:43:8d:44, 2015-01-01 00:04:49.640, -0.124, 0.976, -0.155, 0.427, -0.061, -0.061, , , , , , , 99.124, 7.141, 8.383, 0.000, 0.000, 0.000,, 0.64905, 0.75464, 0.09583, 3E-05,,,
 11:49:55.224,d2:03:b8:43:8d:44, 2015-01-01 00:04:49.640, -0.126, 0.978, -0.157, 0.549, 0, -0.427, , , , , , , 99.124, 7.141, 8.383, 0.000, 0.000, 0.000,, 0.64905, 0.75464, 0.09583, 3E-05,,,
 11:49:55.224,d2:03:b8:43:8d:44, 2015-01-01 00:04:49.640, -0.124, 0.977, -0.159, 0.488, 0, -0.183, , , , , , , 99.124, 7.141, 8.383, 0.000, 0.000, 0.000,, 0.64905, 0.75464, 0.09583, 3E-05,,,
 11:49:55.224,d2:03:b8:43:8d:44, 2015-01-01 00:04:49.640, -0.122, 0.978, -0.159, 0.427, 0.183, -0.183, , , , , , , 99.124, 7.141, 8.383, 0.000, 0.000, 0.000,, 0.64905, 0.75464, 0.09583, 3E-05,,,
 11:49:55.224,d2:03:b8:43:8d:44, 2015-01-01 00:04:49.640, -0.122, 0.978, -0.159, 0.305, 0.122, 0.122, , , , , , , 99.124, 7.141, 8.383, 0.000, 0.000, 0.000,, 0.64905, 0.75464, 0.09583, 3E-05,,,
 11:49:55.224,d2:03:b8:43:8d:44, 2015-01-01 00:04:49.640, -0.123, 0.979, -0.159, 0.183, 0.122, 0, , , , , , , 99.124, 7.141, 8.383, 0.000, 0.000, 0.000,, 0.64905, 0.75464, 0.09583, 3E-05,,,
 11:49:55.225,d2:03:b8:43:8d:44, 2015-01-01 00:04:49.640, -0.125, 0.978, -0.16, 0, 0.183, 0.488, , , , , , , 99.124, 7.141, 8.383, 0.000, 0.000, 0.000,, 0.64905, 0.75464, 0.09583, 3E-05,,,
 11:49:55.225,d2:03:b8:43:8d:44, 2015-01-01 00:04:49.640, -0.123, 0.977, -0.16, -0.183, 0.244, 0.366, , , , , , , 99.124, 7.141, 8.383, 0.000, 0.000, 0.000,, 0.64905, 0.75464, 0.09583, 3E-05,,,
 11:49:55.225,d2:03:b8:43:8d:44, 2015-01-01 00:04:49.640, -0.127, 0.978, -0.159, -0.183, 0.366, 0.244, , , , , , , 99.124, 7.141, 8.383, 0.000, 0.000, 0.000,, 0.64905, 0.75464, 0.09583, 3E-05,,,
 11:49:55.226,d2:03:b8:43:8d:44, 2015-01-01 00:04:49.640, -0.125, 0.977, -0.158, -0.244, 0.183, 0.122, , , , , , , 99.124, 7.141, 8.383, 0.000, 0.000, 0.000,, 0.64905, 0.75464, 0.09583, 3E-05,,,
 11:49:55.226,d2:03:b8:43:8d:44, 2015-01-01 00:04:49.640, -0.125, 0.978, -0.157, -0.183, 0.183, 0.122, , , , , , , 99.124, 7.141, 8.383, 0.000, 0.000, 0.000,, 0.64905, 0.75464, 0.09583, 3E-05,,,
 11:49:55.226,d2:03:b8:43:8d:44, 2015-01-01 00:04:49.640, -0.122, 0.977, -0.156, -0.183, 0, 0.061, , , , , , , 99.124, 7.141, 8.383, 0.000, 0.000, 0.000,, 0.64905, 0.75464, 0.09583, 3E-05,,,
 11:49:55.226,d2:03:b8:43:8d:44, 2015-01-01 00:04:49.640, -0.124, 0.978, -0.156, -0.122, 0.061, -0.183, , , , , , , 99.124, 7.141, 8.383, 0.000, 0.000, 0.000,, 0.64905, 0.75464, 0.09583, 3E-05,,,
 11:49:55.227,d2:03:b8:43:8d:44, 2015-01-01 00:04:49.640, -0.123, 0.978, -0.156, -0.061, 0.122, 0, , , , , , , 99.124, 7.141, 8.383, 0.000, 0.000, 0.000,, 0.64905, 0.75464, 0.09583, 3E-05,,,
 11:49:55.227,d2:03:b8:43:8d:44, 2015-01-01 00:04:49.640, -0.124, 0.978, -0.155, 0.061, 0.122, -0.122, , , , , , , 99.124, 7.141, 8.383, 0.000, 0.000, 0.000,, 0.64905, 0.75464, 0.09583, 3E-05,,,
 11:49:55.227,d2:03:b8:43:8d:44, 2015-01-01 00:04:49.640, -0.125, 0.978, -0.156, 0.183, 0, 0.061, , , , , , , 99.124, 7.141, 8.383, 0.000, 0.000, 0.000,, 0.64905, 0.75464, 0.09583, 3E-05,,,
 11:49:55.227,d2:03:b8:43:8d:44, 2015-01-01 00:04:49.640, -0.125, 0.978, -0.156, 0.366, 0, -0.244, , , , , , , 99.124, 7.141, 8.383, 0.000, 0.000, 0.000,, 0.64905, 0.75464, 0.09583, 3E-05,,,
 11:49:55.363,d2:03:b8:43:8d:44, 2015-01-01 00:04:50.060, -0.126, 0.977, -0.159, 0.366, 0.061, 0.061, , , , , , , 99.124, 7.141, 8.383, 0.000, 0.000, 0.000,, 0.64905, 0.75464, 0.09583, 3E-05,,,
 11:49:55.422,d2:03:b8:43:8d:44, 2015-01-01 00:04:50.060, -0.124, 0.977, -0.159, 0.427, 0.122, -0.122, , , , , , , 99.124, 7.141, 8.383, 0.000, 0.000, 0.000,, 0.64905, 0.75464, 0.09583, 3E-05,,,
 11:49:55.422,d2:03:b8:43:8d:44, 2015-01-01 00:04:50.060, -0.126, 0.977, -0.16, 0.366, 0.183, -0.183, , , , , , , 99.124, 7.141, 8.383, 0.000, 0.000, 0.000,, 0.64905, 0.75464, 0.09583, 3E-05,,,
 11:49:55.422,d2:03:b8:43:8d:44, 2015-01-01 00:04:50.060, -0.122, 0.977, -0.16, 0.244, 0.122, 0, , , , , , , 99.124, 7.141, 8.383, 0.000, 0.000, 0.000,, 0.64905, 0.75464, 0.09583, 3E-05,,,
 11:49:55.438,d2:03:b8:43:8d:44, 2015-01-01 00:04:50.060, -0.123, 0.979, -0.16, 0.244, 0.183, 0.061, , , , , , , 99.124, 7.141, 8.383, 0.000, 0.000, 0.000,, 0.64905, 0.75464, 0.09583, 3E-05,,,
 11:49:55.438,d2:03:b8:43:8d:44, 2015-01-01 00:04:50.060, -0.122, 0.977, -0.159, 0, 0.122, 0.305, , , , , , , 99.124, 7.141, 8.383, 0.000, 0.000, 0.000,, 0.64905, 0.75464, 0.09583, 3E-05,,,
 11:49:55.438,d2:03:b8:43:8d:44, 2015-01-01 00:04:50.060, -0.125, 0.979, -0.159, -0.122, 0.183, 0, , , , , , , 99.124, 7.141, 8.383, 0.000, 0.000, 0.000,, 0.64905, 0.75464, 0.09583, 3E-05,,,
 11:49:55.439,d2:03:b8:43:8d:44, 2015-01-01 00:04:50.060, -0.124, 0.978, -0.158, -0.305, 0.183, 0.427, , , , , , , 99.124, 7.141, 8.383, 0.000, 0.000, 0.000,, 0.64905, 0.75464, 0.09583, 3E-05,,,
 11:49:55.439,d2:03:b8:43:8d:44, 2015-01-01 00:04:50.060, -0.125, 0.978, -0.156, -0.305, 0.244, 0.122, , , , , , , 99.124, 7.141, 8.383, 0.000, 0.000, 0.000,, 0.64905, 0.75464, 0.09583, 3E-05,,,
 11:49:55.439,d2:03:b8:43:8d:44, 2015-01-01 00:04:50.060, -0.125, 0.977, -0.155, -0.305, 0.122, 0.244, , , , , , , 99.13, 7.141, 8.383, 0.000, 0.000, 0.000,, 0.64905, 0.75464, 0.09583, 3E-05,,,
 11:49:55.440,d2:03:b8:43:8d:44, 2015-01-01 00:04:50.060, -0.125, 0.978, -0.155, -0.183, 0.061, -0.061, , , , , , , 99.13, 7.141, 8.383, 0.000, 0.000, 0.000,, 0.64905, 0.75464, 0.09583, 3E-05,,,
 11:49:55.440,d2:03:b8:43:8d:44, 2015-01-01 00:04:50.060, -0.125, 0.978, -0.156, 0, 0.061, 0.061, , , , , , , 99.13, 7.141, 8.383, 0.000, 0.000, 0.000,, 0.64905, 0.75464, 0.09583, 3E-05,,,
 11:49:55.440,d2:03:b8:43:8d:44, 2015-01-01 00:04:50.060, -0.122, 0.977, -0.156, 0.061, 0, -0.061, , , , , , , 99.13, 7.141, 8.383, 0.000, 0.000, 0.000,, 0.64905, 0.75464, 0.09583, 3E-05,,,
 11:49:55.440,d2:03:b8:43:8d:44, 2015-01-01 00:04:50.060, -0.125, 0.978, -0.155, 0.183, 0.122, -0.183, , , , , , , 99.13, 7.141, 8.383, 0.000, 0.000, 0.000,, 0.64905, 0.75464, 0.09583, 3E-05,,,
 11:49:55.441,d2:03:b8:43:8d:44, 2015-01-01 00:04:50.060, -0.123, 0.978, -0.157, 0.366, 0, -0.061, , , , , , , 99.13, 7.141, 8.383, 0.000, 0.000, 0.000,, 0.64905, 0.75464, 0.09583, 3E-05,,,
 11:49:55.441,d2:03:b8:43:8d:44, 2015-01-01 00:04:50.060, -0.125, 0.979, -0.157, 0.427, 0.122, 0, , , , , , , 99.13, 7.141, 8.383, 0.000, 0.000, 0.000,, 0.64905, 0.75464, 0.09583, 3E-05,,,
 11:49:55.441,d2:03:b8:43:8d:44, 2015-01-01 00:04:50.060, -0.123, 0.977, -0.159, 0.427, 0.061, 0, , , , , , , 99.13, 7.141, 8.383, 0.000, 0.000, 0.000,, 0.64905, 0.75464, 0.09583, 3E-05,,,
 11:49:55.442,d2:03:b8:43:8d:44, 2015-01-01 00:04:50.060, -0.125, 0.978, -0.159, 0.366, 0.183, -0.183, , , , , , , 99.13, 7.141, 8.383, 0.000, 0.000, 0.000,, 0.64905, 0.75464, 0.09583, 3E-05,,,
 11:49:55.442,d2:03:b8:43:8d:44, 2015-01-01 00:04:50.060, -0.125, 0.978, -0.16, 0.183, 0.122, 0.122, , , , , , , 99.13, 7.141, 8.383, 0.000, 0.000, 0.000,, 0.64905, 0.75464, 0.09583, 3E-05,,,
 11:49:55.442,d2:03:b8:43:8d:44, 2015-01-01 00:04:50.060, -0.124, 0.977, -0.159, 0.122, 0.122, 0, , , , , , , 99.13, 7.141, 8.383, 0.000, 0.000, 0.000,, 0.64905, 0.75464, 0.09583, 3E-05,,,
 11:49:55.502,d2:03:b8:43:8d:44, 2015-01-01 00:04:50.060, -0.124, 0.977, -0.16, 0, 0.122, 0.122, , , , , , , 99.13, 7.141, 8.383, 0.000, 0.000, 0.000,, 0.64905, 0.75464, 0.09583, 3E-05,,,
 11:49:55.570,d2:03:b8:43:8d:44, 2015-01-01 00:04:50.060, -0.123, 0.978, -0.159, -0.061, 0.183, -0.122, , , , , , , 99.13, 7.141, 8.383, 0.000, 0.000, 0.000,, 0.64905, 0.75464, 0.09583, 3E-05,,,
 11:49:55.627,d2:03:b8:43:8d:44, 2015-01-01 00:04:50.060, -0.125, 0.979, -0.158, -0.183, 0.183, 0.183, , , , , , , 99.13, 7.141, 8.383, 0.000, 0.000, 0.000,, 0.64905, 0.75464, 0.09583, 3E-05,,,
 11:49:55.627,d2:03:b8:43:8d:44, 2015-01-01 00:04:50.060, -0.122, 0.978, -0.157, -0.305, 0.122, 0.183, , , , , , , 99.13, 7.141, 8.383, 0.000, 0.000, 0.000,, 0.64902, 0.75464, 0.09583, 3E-05,,,
 11:49:55.643,d2:03:b8:43:8d:44, 2015-01-01 00:04:50.060, -0.125, 0.978, -0.156, -0.244, 0.244, 0.183, , , , , , , 99.13, 7.141, 8.383, 0.000, 0.000, 0.000,, 0.64902, 0.75464, 0.09583, 3E-05,,,
 11:49:55.643,d2:03:b8:43:8d:44, 2015-01-01 00:04:50.060, -0.123, 0.977, -0.155, -0.122, 0.061, 0.122, , , , , , , 99.13, 7.141, 8.383, 0.000, 0.000, 0.000,, 0.64902, 0.75464, 0.09583, 3E-05,,,
 11:49:55.643,d2:03:b8:43:8d:44, 2015-01-01 00:04:50.060, -0.125, 0.978, -0.156, 0, 0.122, 0, , , , , , , 99.13, 7.141, 8.383, 0.000, 0.000, 0.000,, 0.64902, 0.75464, 0.09583, 3E-05,,,
 11:49:55.643,d2:03:b8:43:8d:44, 2015-01-01 00:04:50.060, -0.124, 0.977, -0.156, 0.122, 0.061, 0.244, , , , , , , 99.13, 7.141, 8.383, 0.000, 0.000, 0.000,, 0.64902, 0.75464, 0.09583, 3E-05,,,
 11:49:55.644,d2:03:b8:43:8d:44, 2015-01-01 00:04:50.060, -0.125, 0.977, -0.156, 0.183, 0.183, -0.183, , , , , , , 99.13, 7.141, 8.383, 0.000, 0.000, 0.000,, 0.64902, 0.75464, 0.09583, 3E-05,,,
 11:49:55.644,d2:03:b8:43:8d:44, 2015-01-01 00:04:50.060, -0.125, 0.978, -0.158, 0.366, 0.061, -0.061, , , , , , , 99.13, 7.141, 8.383, 0.000, 0.000, 0.000,, 0.64902, 0.75464, 0.09583, 3E-05,,,
 11:49:55.644,d2:03:b8:43:8d:44, 2015-01-01 00:04:50.060, -0.123, 0.978, -0.158, 0.366, 0.061, -0.244, , , , , , , 99.13, 7.141, 8.383, 0.000, 0.000, 0.000,, 0.64902, 0.75464, 0.09583, 3E-05,,,
 11:49:55.644,d2:03:b8:43:8d:44, 2015-01-01 00:04:50.060, -0.124, 0.978, -0.158, 0.305, 0.061, 0.183, , , , , , , 99.13, 7.141, 8.383, 0.000, 0.000, 0.000,, 0.64902, 0.75464, 0.09583, 3E-05,,,
 11:49:55.645,d2:03:b8:43:8d:44, 2015-01-01 00:04:50.060, -0.122, 0.977, -0.159, 0.244, 0.122, -0.183, , , , , , , 99.13, 7.141, 8.383, 0.000, 0.000, 0.000,, 0.64902, 0.75464, 0.09583, 3E-05,,,
 11:49:55.646,d2:03:b8:43:8d:44, 2015-01-01 00:04:50.060, -0.126, 0.978, -0.16, 0.122, 0.244, 0, , , , , , , 99.13, 7.141, 8.383, 0.000, 0.000, 0.000,, 0.64902, 0.75464, 0.09583, 3E-05,,,
 11:49:55.646,d2:03:b8:43:8d:44, 2015-01-01 00:04:50.060, -0.123, 0.977, -0.159, 0, 0.061, 0.122, , , , , , , 99.13, 7.141, 8.383, 0.000, 0.000, 0.000,, 0.64902, 0.75464, 0.09583, 3E-05,,,
 11:49:55.646,d2:03:b8:43:8d:44, 2015-01-01 00:04:50.060, -0.125, 0.977, -0.159, 0, 0.183, 0.183, , , , , , , 99.13, 7.141, 8.383, 0.000, 0.000, 0.000,, 0.64902, 0.75464, 0.09583, 3E-05,,,
 11:49:55.646,d2:03:b8:43:8d:44, 2015-01-01 00:04:50.060, -0.124, 0.977, -0.158, -0.061, 0.061, 0.122, , , , , , , 99.13, 7.141, 8.383, 0.000, 0.000, 0.000,, 0.64902, 0.75464, 0.09583, 3E-05,,,
 11:49:55.646,d2:03:b8:43:8d:44, 2015-01-01 00:04:50.060, -0.126, 0.978, -0.159, -0.061, 0.244, -0.061, , , , , , , 99.13, 7.141, 8.383, 0.000, 0.000, 0.000,, 0.64902, 0.75464, 0.09583, 3E-05,,,
 11:49:55.646,d2:03:b8:43:8d:44, 2015-01-01 00:04:50.060, -0.123, 0.978, -0.157, -0.122, 0.061, 0.305, , , , , , , 99.13, 7.141, 8.383, 0.000, 0.000, 0.000,, 0.64902, 0.75464, 0.09583, 3E-05,,,
 11:49:55.646,d2:03:b8:43:8d:44, 2015-01-01 00:04:50.060, -0.124, 0.978, -0.157, -0.122, 0.183, 0, , , , , , , 99.13, 7.141, 8.383, 0.000, 0.000, 0.000,, 0.64902, 0.75464, 0.09583, 3E-05,,,
 11:49:55.802,d2:03:b8:43:8d:44, 2015-01-01 00:04:50.060, -0.124, 0.978, -0.157, -0.061, 0.061, 0.183, , , , , , , 99.13, 7.141, 8.383, 0.000, 0.000, 0.000,, 0.64902, 0.75464, 0.09583, 3E-05,,,
 11:49:55.881,d2:03:b8:43:8d:44, 2015-01-01 00:04:50.505, -0.123, 0.979, -0.155, 0, 0.122, -0.061, , , , , , , 99.13, 7.141, 8.383, 0.000, 0.000, 0.000,, 0.64902, 0.75464, 0.09583, 3E-05,,,
 11:49:55.881,d2:03:b8:43:8d:44, 2015-01-01 00:04:50.505, -0.125, 0.978, -0.156, 0, 0.061, 0.183, , , , , , , 99.13, 7.141, 8.383, 0.000, 0.000, 0.000,, 0.64902, 0.75464, 0.09583, 3E-05,,,
 11:49:55.881,d2:03:b8:43:8d:44, 2015-01-01 00:04:50.505, -0.123, 0.977, -0.155, 0.122, 0.061, 0, , , , , , , 99.13, 7.141, 8.383, 0.000, 0.000, 0.000,, 0.64902, 0.75464, 0.09583, 3E-05,,,
 11:49:55.970,d2:03:b8:43:8d:44, 2015-01-01 00:04:50.505, -0.126, 0.978, -0.156, 0.183, 0.183, 0, , , , , , , 99.13, 7.141, 8.383, 0.000, 0.000, 0.000,, 0.64902, 0.75464, 0.09583, 3E-05,,,
 11:49:55.971,d2:03:b8:43:8d:44, 2015-01-01 00:04:50.505, -0.124, 0.977, -0.157, 0.183, 0.061, 0, , , , , , , 99.13, 7.141, 8.383, 0.000, 0.000, 0.000,, 0.64902, 0.75464, 0.09583, 3E-05,,,
 11:49:55.971,d2:03:b8:43:8d:44, 2015-01-01 00:04:50.505, -0.126, 0.978, -0.158, 0.305, 0.122, -0.122, , , , , , , 99.13, 7.141, 8.383, 0.000, 0.000, 0.000,, 0.64902, 0.75464, 0.09583, 3E-05,,,
 11:49:55.971,d2:03:b8:43:8d:44, 2015-01-01 00:04:50.505, -0.124, 0.977, -0.158, 0.244, 0, 0, , , , , , , 99.13, 7.141, 8.383, 0.000, 0.000, 0.000,, 0.64902, 0.75464, 0.09583, 3E-05,,,
 11:49:55.971,d2:03:b8:43:8d:44, 2015-01-01 00:04:50.505, -0.124, 0.978, -0.159, 0.183, 0.122, -0.183, , , , , , , 99.13, 7.141, 8.383, 0.000, 0.000, 0.000,, 0.64902, 0.75464, 0.09583, 3E-05,,,
 11:49:55.972,d2:03:b8:43:8d:44, 2015-01-01 00:04:50.505, -0.123, 0.978, -0.16, 0.122, 0, 0.122, , , , , , , 99.13, 7.141, 8.383, 0.000, 0.000, 0.000,, 0.64902, 0.75464, 0.09583, 3E-05,,,
 11:49:55.972,d2:03:b8:43:8d:44, 2015-01-01 00:04:50.505, -0.124, 0.978, -0.159, 0.061, 0.244, 0, , , , , , , 99.13, 7.141, 8.383, 0.000, 0.000, 0.000,, 0.64902, 0.75464, 0.09583, 3E-05,,,
 11:49:55.972,d2:03:b8:43:8d:44, 2015-01-01 00:04:50.505, -0.124, 0.977, -0.159, 0, 0.183, 0.183, , , , , , , 99.13, 7.141, 8.383, 0.000, 0.000, 0.000,, 0.64902, 0.75464, 0.09583, 3E-05,,,
 11:49:55.973,d2:03:b8:43:8d:44, 2015-01-01 00:04:50.505, -0.123, 0.978, -0.16, 0, 0.122, 0, , , , , , , 99.13, 7.141, 8.383, 0.000, 0.000, 0.000,, 0.64902, 0.75464, 0.09583, 3E-05,,,
 11:49:55.973,d2:03:b8:43:8d:44, 2015-01-01 00:04:50.505, -0.125, 0.978, -0.158, -0.122, 0.244, 0.366, , , , , , , 99.13, 7.141, 8.383, 0.000, 0.000, 0.000,, 0.64902, 0.75464, 0.09583, 3E-05,,,
 11:49:55.973,d2:03:b8:43:8d:44, 2015-01-01 00:04:50.505, -0.123, 0.977, -0.157, -0.183, 0.122, 0.061, , , , , , , 99.13, 7.141, 8.383, 0.000, 0.000, 0.000,, 0.64902, 0.75464, 0.09583, 3E-05,,,
 11:49:55.973,d2:03:b8:43:8d:44, 2015-01-01 00:04:50.505, -0.126, 0.978, -0.157, -0.122, 0.183, 0, , , , , , , 99.13, 7.141, 8.383, 0.000, 0.000, 0.000,, 0.64902, 0.75464, 0.09583, 3E-05,,,
 11:49:55.974,d2:03:b8:43:8d:44, 2015-01-01 00:04:50.505, -0.123, 0.978, -0.156, -0.061, 0, 0, , , , , , , 99.13, 7.141, 8.383, 0.000, 0.000, 0.000,, 0.64902, 0.75464, 0.09583, 3E-05,,,
 11:49:55.974,d2:03:b8:43:8d:44, 2015-01-01 00:04:50.505, -0.125, 0.978, -0.156, 0, 0.183, 0, , , , , , , 99.13, 7.141, 8.383, 0.000, 0.000, 0.000,, 0.64902, 0.75464, 0.09583, 3E-05,,,
 11:49:55.974,d2:03:b8:43:8d:44, 2015-01-01 00:04:50.505, -0.123, 0.977, -0.156, 0.061, 0, 0, , , , , , , 99.13, 7.141, 8.383, 0.000, 0.000, 0.000,, 0.64902, 0.75464, 0.09583, 3E-05,,,
 11:49:55.974,d2:03:b8:43:8d:44, 2015-01-01 00:04:50.505, -0.125, 0.979, -0.157, 0.122, 0.183, -0.244, , , , , , , 99.13, 7.141, 8.383, 0.000, 0.000, 0.000,, 0.64902, 0.75464, 0.09583, 3E-05,,,
 11:49:55.974,d2:03:b8:43:8d:44, 2015-01-01 00:04:50.505, -0.124, 0.977, -0.158, 0.183, 0, 0.122, , , , , , , 99.13, 7.141, 8.383, 0.000, 0.000, 0.000,, 0.64902, 0.75464, 0.09583, 3E-05,,,
 11:49:55.975,d2:03:b8:43:8d:44, 2015-01-01 00:04:50.505, -0.124, 0.978, -0.158, 0.244, 0.122, -0.061, , , , , , , 99.13, 7.141, 8.383, 0.000, 0.000, 0.000,, 0.64902, 0.75464, 0.09583, 3E-05,,,
 11:49:55.975,d2:03:b8:43:8d:44, 2015-01-01 00:04:50.505, -0.125, 0.978, -0.159, 0.305, 0.061, 0.122, , , , , , , 99.13, 7.141, 8.383, 0.000, 0.000, 0.000,, 0.64902, 0.75464, 0.09583, 3E-05,,,
 11:49:55.975,d2:03:b8:43:8d:44, 2015-01-01 00:04:50.505, -0.124, 0.978, -0.16, 0.244, 0.122, -0.061, , , , , , , 99.135, 7.141, 8.383, 0.000, 0.000, 0.000,, 0.64902, 0.75464, 0.09583, 3E-05,,,
 11:49:55.975,d2:03:b8:43:8d:44, 2015-01-01 00:04:50.505, -0.125, 0.978, -0.159, 0.183, 0.183, 0.061, , , , , , , 99.135, 7.141, 8.383, 0.000, 0.000, 0.000,, 0.64902, 0.75464, 0.09583, 3E-05,,,
 11:49:55.976,d2:03:b8:43:8d:44, 2015-01-01 00:04:50.505, -0.123, 0.977, -0.16, 0.122, 0.061, 0, , , , , , , 99.135, 7.141, 8.383, 0.000, 0.000, 0.000,, 0.64902, 0.75464, 0.09583, 3E-05,,,
 11:49:55.976,d2:03:b8:43:8d:44, 2015-01-01 00:04:50.505, -0.125, 0.978, -0.159, 0, 0.244, 0.061, , , , , , , 99.135, 7.141, 8.383, 0.000, 0.000, 0.000,, 0.64902, 0.75464, 0.09583, 3E-05,,,
 11:49:55.976,d2:03:b8:43:8d:44, 2015-01-01 00:04:50.505, -0.123, 0.977, -0.158, -0.061, 0, 0.122, , , , , , , 99.135, 7.141, 8.383, 0.000, 0.000, 0.000,, 0.64902, 0.75464, 0.09583, 3E-05,,,
 11:49:56.014,d2:03:b8:43:8d:44, 2015-01-01 00:04:50.505, -0.125, 0.978, -0.158, -0.122, 0.183, 0.061, , , , , , , 99.135, 7.141, 8.383, 0.000, 0.000, 0.000,, 0.64902, 0.75464, 0.09583, 3E-05,,,
 11:49:56.074,d2:03:b8:43:8d:44, 2015-01-01 00:04:50.505, -0.123, 0.978, -0.158, -0.122, 0.061, 0.122, , , , , , , 99.135, 7.141, 8.383, 0.000, 0.000, 0.000,, 0.64902, 0.75464, 0.09583, 3E-05,,,
 11:49:56.074,d2:03:b8:43:8d:44, 2015-01-01 00:04:50.505, -0.125, 0.978, -0.157, -0.122, 0.244, 0, , , , , , , 99.135, 7.141, 8.383, 0.000, 0.000, 0.000,, 0.64902, 0.75464, 0.09583, 3E-05,,,
 11:49:56.075,d2:03:b8:43:8d:44, 2015-01-01 00:04:50.505, -0.125, 0.977, -0.156, -0.122, 0.061, 0.244, , , , , , , 99.135, 7.141, 8.383, 0.000, 0.000, 0.000,, 0.64902, 0.75464, 0.09583, 3E-05,,,
 11:49:56.075,d2:03:b8:43:8d:44, 2015-01-01 00:04:50.505, -0.125, 0.977, -0.156, 0, 0.122, -0.061, , , , , , , 99.135, 7.141, 8.383, 0.000, 0.000, 0.000,, 0.64902, 0.75464, 0.09583, 3E-05,,,
 11:49:56.075,d2:03:b8:43:8d:44, 2015-01-01 00:04:50.505, -0.125, 0.977, -0.156, 0.061, 0.061, 0.061, , , , , , , 99.135, 7.141, 8.383, 0.000, 0.000, 0.000,, 0.64902, 0.75464, 0.09583, 3E-05,,,
 11:49:56.075,d2:03:b8:43:8d:44, 2015-01-01 00:04:50.505, -0.124, 0.977, -0.156, 0.183, 0.061, -0.183, , , , , , , 99.135, 7.141, 8.383, 0.000, 0.000, 0.000,, 0.64902, 0.75464, 0.09583, 3E-05,,,
 11:49:56.075,d2:03:b8:43:8d:44, 2015-01-01 00:04:50.505, -0.125, 0.978, -0.157, 0.244, 0.122, 0, , , , , , , 99.135, 7.141, 8.383, 0.000, 0.000, 0.000,, 0.64902, 0.75464, 0.09583, 3E-05,,,
 11:49:56.092,d2:03:b8:43:8d:44, 2015-01-01 00:04:50.505, -0.122, 0.978, -0.158, 0.244, 0, -0.061, , , , , , , 99.135, 7.141, 8.383, 0.000, 0.000, 0.000,, 0.64902, 0.75464, 0.09583, 3E-05,,,
 11:49:56.092,d2:03:b8:43:8d:44, 2015-01-01 00:04:50.505, -0.125, 0.978, -0.158, 0.305, 0.183, -0.061, , , , , , , 99.135, 7.141, 8.383, 0.000, 0.000, 0.000,, 0.64902, 0.75464, 0.09583, 3E-05,,,
 11:49:56.092,d2:03:b8:43:8d:44, 2015-01-01 00:04:50.505, -0.123, 0.978, -0.158, 0.183, 0, 0, , , , , , , 99.135, 7.141, 8.383, 0.000, 0.000, 0.000,, 0.64902, 0.75464, 0.09583, 3E-05,,,
 11:49:56.093,d2:03:b8:43:8d:44, 2015-01-01 00:04:50.505, -0.125, 0.978, -0.159, 0.122, 0.244, -0.061, , , , , , , 99.135, 7.141, 8.383, 0.000, 0.000, 0.000,, 0.64902, 0.75464, 0.09583, 3E-05,,,
 11:49:56.093,d2:03:b8:43:8d:44, 2015-01-01 00:04:50.505, -0.125, 0.977, -0.159, 0.061, 0.061, 0.122, , , , , , , 99.135, 7.141, 8.383, 0.000, 0.000, 0.000,, 0.64902, 0.75464, 0.09583, 3E-05,,,
 11:49:56.093,d2:03:b8:43:8d:44, 2015-01-01 00:04:50.505, -0.125, 0.978, -0.159, 0, 0.183, 0, , , , , , , 99.135, 7.141, 8.383, 0.000, 0.000, 0.000,, 0.64902, 0.75464, 0.09583, 3E-05,,,
 11:49:56.093,d2:03:b8:43:8d:44, 2015-01-01 00:04:50.505, -0.124, 0.977, -0.159, -0.061, 0.122, 0.244, , , , , , , 99.135, 7.141, 8.383, 0.000, 0.000, 0.000,, 0.64902, 0.75464, 0.09583, 3E-05,,,
 11:49:56.093,d2:03:b8:43:8d:44, 2015-01-01 00:04:50.505, -0.124, 0.978, -0.158, -0.061, 0.122, -0.061, , , , , , , 99.135, 7.141, 8.383, 0.000, 0.000, 0.000,, 0.64902, 0.75464, 0.09583, 3E-05,,,
 11:49:56.187,d2:03:b8:43:8d:44, 2015-01-01 00:04:50.505, -0.125, 0.977, -0.157, -0.122, 0.122, 0.122, , , , , , , 99.135, 7.141, 8.383, 0.000, 0.000, 0.000,, 0.64993, 0.75394, 0.09509, 0.00049,,,
 11:49:56.187,d2:03:b8:43:8d:44, 2015-01-01 00:04:50.980, -0.127, 0.977, -0.157, 0, 0.122, 0, , , , , , , 99.135, 7.141, 8.383, 0.000, 0.000, 0.000,, 0.64993, 0.75394, 0.09509, 0.00049,,,
 11:49:56.187,d2:03:b8:43:8d:44, 2015-01-01 00:04:50.980, -0.133, 0.977, -0.16, -0.61, -0.916, 0.732, , , , , , , 99.135, 7.141, 8.383, 0.000, 0.000, 0.000,, 0.64993, 0.75394, 0.09509, 0.00049,,,
 11:49:56.187,d2:03:b8:43:8d:44, 2015-01-01 00:04:50.980, -0.13, 0.984, -0.182, -4.7, -1.526, 3.052, , , , , , , 99.113, 7.13, 8.372, 0.000, 0.000, 0.000,, 0.64993, 0.75394, 0.09509, 0.00049,,,
 11:49:56.226,d2:03:b8:43:8d:44, 2015-01-01 00:04:50.980, -0.126, 0.984, -0.177, -9.033, -0.671, 5.554, , , , , , , 99.036, 7.086, 8.355, 0.000, 0.000, 0.000,, 0.64993, 0.75394, 0.09509, 0.00049,,,
 11:49:56.286,d2:03:b8:43:8d:44, 2015-01-01 00:04:50.980, -0.107, 0.983, -0.168, -11.658, 1.465, 7.263, , , , , , , 98.926, 7.02, 8.344, 0.000, 0.000, 0.000,, 0.64993, 0.75394, 0.09509, 0.00049,,,
 11:49:56.286,d2:03:b8:43:8d:44, 2015-01-01 00:04:50.980, -0.123, 0.975, -0.145, -10.498, 5.005, 5.066, , , , , , , 98.817, 6.954, 8.366, 0.000, 0.000, 0.000,, 0.64993, 0.75394, 0.09509, 0.00049,,,
 11:49:56.286,d2:03:b8:43:8d:44, 2015-01-01 00:04:50.980, -0.116, 0.974, -0.129, -6.897, 4.456, 3.723, , , , , , , 98.734, 6.905, 8.41, 0.000, 0.000, 0.000,, 0.64993, 0.75394, 0.09509, 0.00049,,,
 11:49:56.286,d2:03:b8:43:8d:44, 2015-01-01 00:04:50.980, -0.109, 0.976, -0.134, -4.089, 2.258, 3.54, , , , , , , 98.685, 6.861, 8.438, 0.000, 0.000, 0.000,, 0.64993, 0.75394, 0.09509, 0.00049,,,
 11:49:56.286,d2:03:b8:43:8d:44, 2015-01-01 00:04:50.980, -0.113, 0.974, -0.142, -2.258, 0.183, 0.244, , , , , , , 98.657, 6.844, 8.443, 0.000, 0.000, 0.000,, 0.64993, 0.75394, 0.09509, 0.00049,,,
 11:49:56.287,d2:03:b8:43:8d:44, 2015-01-01 00:04:50.980, -0.11, 0.979, -0.151, -2.319, -0.305, -1.648, , , , , , , 98.635, 6.855, 8.443, 0.000, 0.000, 0.000,, 0.64993, 0.75394, 0.09509, 0.00049,,,
 11:49:56.287,d2:03:b8:43:8d:44, 2015-01-01 00:04:50.980, -0.109, 0.979, -0.154, -3.174, -1.099, -2.38, , , , , , , 98.602, 6.877, 8.438, 0.000, 0.000, 0.000,, 0.64993, 0.75394, 0.09509, 0.00049,,,
 11:49:56.303,d2:03:b8:43:8d:44, 2015-01-01 00:04:50.980, -0.12, 0.977, -0.149, -3.479, -0.671, -5.249, , , , , , , 98.564, 6.916, 8.432, 0.000, 0.000, 0.000,, 0.64993, 0.75394, 0.09509, 0.00049,,,
 11:49:56.327,d2:03:b8:43:8d:44, 2015-01-01 00:04:50.980, -0.132, 0.978, -0.139, -2.197, -0.427, -5.554, , , , , , , 98.536, 6.976, 8.432, 0.000, 0.000, 0.000,, 0.64993, 0.75394, 0.09509, 0.00049,,,
 11:49:56.327,d2:03:b8:43:8d:44, 2015-01-01 00:04:50.980, -0.134, 0.978, -0.132, 0.183, -1.77, -4.517, , , , , , , 98.525, 7.026, 8.432, 0.000, 0.000, 0.000,, 0.64993, 0.75394, 0.09509, 0.00049,,,
 11:49:56.398,d2:03:b8:43:8d:44, 2015-01-01 00:04:50.980, -0.135, 0.982, -0.141, 1.831, -1.892, -1.953, , , , , , , 98.536, 7.059, 8.41, 0.000, 0.000, 0.000,, 0.64993, 0.75394, 0.09509, 0.00049,,,
 11:49:56.398,d2:03:b8:43:8d:44, 2015-01-01 00:04:50.980, -0.131, 0.984, -0.153, 1.465, -0.671, 0.977, , , , , , , 98.553, 7.07, 8.399, 0.000, 0.000, 0.000,, 0.64993, 0.75394, 0.09509, 0.00049,,,
 11:49:56.398,d2:03:b8:43:8d:44, 2015-01-01 00:04:50.980, -0.128, 0.986, -0.159, -0.366, 1.038, 3.967, , , , , , , 98.553, 7.042, 8.394, 0.000, 0.000, 0.000,, 0.64993, 0.75394, 0.09509, 0.00049,,,
 11:49:56.399,d2:03:b8:43:8d:44, 2015-01-01 00:04:50.980, -0.129, 0.982, -0.155, -1.831, 2.075, 5.798, , , , , , , 98.542, 6.987, 8.405, 0.000, 0.000, 0.000,, 0.64993, 0.75394, 0.09509, 0.00049,,,
 11:49:56.399,d2:03:b8:43:8d:44, 2015-01-01 00:04:50.980, -0.126, 0.982, -0.148, -2.38, 2.075, 7.019, , , , , , , 98.52, 6.921, 8.416, 0.000, 0.000, 0.000,, 0.64993, 0.75394, 0.09509, 0.00049,,,
 11:49:56.399,d2:03:b8:43:8d:44, 2015-01-01 00:04:50.980, -0.115, 0.981, -0.144, -2.197, 1.892, 8.972, , , , , , , 98.498, 6.839, 8.421, 0.000, 0.000, 0.000,, 0.64993, 0.75394, 0.09509, 0.00049,,,
 11:49:56.399,d2:03:b8:43:8d:44, 2015-01-01 00:04:50.980, -0.111, 0.978, -0.139, -1.16, 1.526, 8.911, , , , , , , 98.481, 6.746, 8.421, 0.000, 0.000, 0.000,, 0.64993, 0.75394, 0.09509, 0.00049,,,
 11:49:56.400,d2:03:b8:43:8d:44, 2015-01-01 00:04:50.980, -0.122, 0.977, -0.139, 0, 0.977, 7.629, , , , , , , 98.476, 6.663, 8.421, 0.000, 0.000, 0.000,, 0.64993, 0.75394, 0.09509, 0.00049,,,
 11:49:56.400,d2:03:b8:43:8d:44, 2015-01-01 00:04:50.980, -0.12, 0.983, -0.145, 0.427, 0.305, 7.996, , , , , , , 98.476, 6.586, 8.416, 0.000, 0.000, 0.000,, 0.64993, 0.75394, 0.09509, 0.00049,,,
 11:49:56.441,d2:03:b8:43:8d:44, 2015-01-01 00:04:50.980, -0.108, 0.984, -0.149, 0, 0.366, 10.742, , , , , , , 98.476, 6.493, 8.405, 0.000, 0.000, 0.000,, 0.64993, 0.75394, 0.09509, 0.00049,,,
 11:49:56.622,d2:03:b8:43:8d:44, 2015-01-01 00:04:50.980, -0.116, 0.979, -0.146, -0.061, 0.671, 10.559, , , , , , , 98.47, 6.383, 8.394, 0.000, 0.000, 0.000,, 0.64993, 0.75394, 0.09509, 0.00049,,,
 11:49:56.623,d2:03:b8:43:8d:44, 2015-01-01 00:04:50.980, -0.134, 0.978, -0.139, 0.916, -0.305, 9.644, , , , , , , 98.476, 6.29, 8.377, 0.000, 0.000, 0.000,, 0.66714, 0.73953, 0.08771, 0.01495,,,
 11:49:56.623,d2:03:b8:43:8d:44, 2015-01-01 00:04:50.980, -0.11, 0.989, -0.149, 0.916, -1.16, 14.771, , , , , , , 98.481, 6.174, 8.35, 0.000, 0.000, 0.000,, 0.66714, 0.73953, 0.08771, 0.01495,,,
 11:49:56.651,d2:03:b8:43:8d:44, 2015-01-01 00:04:50.980, -0.09, 0.987, -0.159, -0.793, -0.488, 18.311, , , , , , , 98.476, 5.999, 8.311, 0.000, 0.000, 0.000,, 0.66714, 0.73953, 0.08771, 0.01495,,,
 11:49:56.712,d2:03:b8:43:8d:44, 2015-01-01 00:04:50.980, -0.095, 0.98, -0.156, -2.136, 0.61, 15.686, , , , , , , 98.459, 5.834, 8.284, 0.000, 0.000, 0.000,, 0.66714, 0.73953, 0.08771, 0.01495,,,
 11:49:56.713,d2:03:b8:43:8d:44, 2015-01-01 00:04:51.490, -0.101, 0.989, -0.155, -3.174, 1.77, 15.381, , , , , , , 98.427, 5.68, 8.273, 0.000, 0.000, 0.000,, 0.66714, 0.73953, 0.08771, 0.01495,,,
 11:49:56.713,d2:03:b8:43:8d:44, 2015-01-01 00:04:51.490, -0.092, 0.988, -0.152, -4.578, 3.784, 18.86, , , , , , , 98.388, 5.499, 8.278, 0.000, 0.000, 0.000,, 0.66714, 0.73953, 0.08771, 0.01495,,,
 11:49:56.713,d2:03:b8:43:8d:44, 2015-01-01 00:04:51.490, -0.086, 0.978, -0.137, -3.54, 3.052, 16.663, , , , , , , 98.344, 5.317, 8.284, 0.000, 0.000, 0.000,, 0.66714, 0.73953, 0.08771, 0.01495,,,
 11:49:56.714,d2:03:b8:43:8d:44, 2015-01-01 00:04:51.490, -0.074, 0.978, -0.132, -1.709, 2.258, 15.625, , , , , , , 98.317, 5.158, 8.289, 0.000, 0.000, 0.000,, 0.66714, 0.73953, 0.08771, 0.01495,,,
 11:49:56.714,d2:03:b8:43:8d:44, 2015-01-01 00:04:51.490, -0.068, 0.976, -0.134, -0.061, 1.465, 12.39, , , , , , , 98.311, 5.015, 8.284, 0.000, 0.000, 0.000,, 0.66714, 0.73953, 0.08771, 0.01495,,,
 11:49:56.714,d2:03:b8:43:8d:44, 2015-01-01 00:04:51.490, -0.062, 0.975, -0.144, 0.488, 1.526, 7.751, , , , , , , 98.317, 4.916, 8.284, 0.000, 0.000, 0.000,, 0.66714, 0.73953, 0.08771, 0.01495,,,
 11:49:56.746,d2:03:b8:43:8d:44, 2015-01-01 00:04:51.490, -0.062, 0.986, -0.168, -3.296, 2.258, 4.578, , , , , , , 98.3, 4.85, 8.295, 0.000, 0.000, 0.000,, 0.66714, 0.73953, 0.08771, 0.01495,,,
 11:49:56.746,d2:03:b8:43:8d:44, 2015-01-01 00:04:51.490, -0.087, 0.983, -0.171, -8.179, 2.563, -1.953, , , , , , , 98.24, 4.839, 8.317, 0.000, 0.000, 0.000,, 0.66714, 0.73953, 0.08771, 0.01495,,,
 11:49:56.746,d2:03:b8:43:8d:44, 2015-01-01 00:04:51.490, -0.087, 0.996, -0.166, -12.512, 3.54, -2.502, , , , , , , 98.135, 4.867, 8.35, 0.000, 0.000, 0.000,, 0.66714, 0.73953, 0.08771, 0.01495,,,
 11:49:56.747,d2:03:b8:43:8d:44, 2015-01-01 00:04:51.490, -0.069, 0.988, -0.138, -13.916, 1.648, -2.136, , , , , , , 98.004, 4.878, 8.377, 0.000, 0.000, 0.000,, 0.66714, 0.73953, 0.08771, 0.01495,,,
 11:49:56.747,d2:03:b8:43:8d:44, 2015-01-01 00:04:51.490, -0.057, 0.977, -0.124, -12.329, -0.305, -5.127, , , , , , , 97.872, 4.916, 8.388, 0.000, 0.000, 0.000,, 0.66714, 0.73953, 0.08771, 0.01495,,,
 11:49:56.747,d2:03:b8:43:8d:44, 2015-01-01 00:04:51.490, -0.076, 0.977, -0.135, -11.719, 1.648, -9.155, , , , , , , 97.751, 4.988, 8.399, 0.000, 0.000, 0.000,, 0.66714, 0.73953, 0.08771, 0.01495,,,
 11:49:56.748,d2:03:b8:43:8d:44, 2015-01-01 00:04:51.490, -0.109, 0.982, -0.139, -12.939, 1.709, -12.573, , , , , , , 97.63, 5.098, 8.432, 0.000, 0.000, 0.000,, 0.66714, 0.73953, 0.08771, 0.01495,,,
 11:49:56.748,d2:03:b8:43:8d:44, 2015-01-01 00:04:51.490, -0.133, 0.993, -0.133, -14.282, 0.427, -13.306, , , , , , , 97.498, 5.235, 8.465, 0.000, 0.000, 0.000,, 0.66714, 0.73953, 0.08771, 0.01495,,,
 11:49:56.748,d2:03:b8:43:8d:44, 2015-01-01 00:04:51.490, -0.113, 1.012, -0.133, -15.747, -1.16, -8.118, , , , , , , 97.344, 5.339, 8.47, 0.000, 0.000, 0.000,, 0.66714, 0.73953, 0.08771, 0.01495,,,
 11:49:56.748,d2:03:b8:43:8d:44, 2015-01-01 00:04:51.490, -0.084, 1.003, -0.139, -18.86, -0.366, 0.061, , , , , , , 97.169, 5.367, 8.465, 0.000, 0.000, 0.000,, 0.66714, 0.73953, 0.08771, 0.01495,,,
 11:49:56.749,d2:03:b8:43:8d:44, 2015-01-01 00:04:51.490, -0.091, 1.005, -0.15, -20.813, 2.197, -3.174, , , , , , , 96.971, 5.389, 8.47, 0.000, 0.000, 0.000,, 0.66714, 0.73953, 0.08771, 0.01495,,,
 11:49:56.749,d2:03:b8:43:8d:44, 2015-01-01 00:04:51.490, -0.078, 0.996, -0.137, -22.4, 5.127, -0.183, , , , , , , 96.757, 5.405, 8.514, 0.000, 0.000, 0.000,, 0.66714, 0.73953, 0.08771, 0.01495,,,
 11:49:56.749,d2:03:b8:43:8d:44, 2015-01-01 00:04:51.490, -0.012, 0.981, -0.111, -22.644, 4.15, -5.676, , , , , , , 96.531, 5.433, 8.558, 0.000, 0.000, 0.000,, 0.66714, 0.73953, 0.08771, 0.01495,,,
 11:49:56.812,d2:03:b8:43:8d:44, 2015-01-01 00:04:51.490, -0.063, 0.898, -0.118, -24.292, 11.719, 0.61, , , , , , , 96.301, 5.444, 8.646, 0.000, 0.000, 0.000,, 0.66714, 0.73953, 0.08771, 0.01495,,,
 11:49:56.813,d2:03:b8:43:8d:44, 2015-01-01 00:04:51.490, -0.208, 0.955, -0.094, -18.616, 8.057, -32.288, , , , , , , 96.097, 5.63, 8.762, 0.000, 0.000, 0.000,, 0.66714, 0.73953, 0.08771, 0.01495,,,
 11:49:56.813,d2:03:b8:43:8d:44, 2015-01-01 00:04:51.490, -0.185, 1.065, -0.098, -17.761, 2.808, -13.184, , , , , , , 95.933, 5.872, 8.833, 0.000, 0.000, 0.000,, 0.66714, 0.73953, 0.08771, 0.01495,,,
 11:49:56.813,d2:03:b8:43:8d:44, 2015-01-01 00:04:51.490, -0.105, 1.075, -0.102, -19.775, -2.197, 1.221, , , , , , , 95.74, 5.911, 8.844, 0.000, 0.000, 0.000,, 0.66714, 0.73953, 0.08771, 0.01495,,,
 11:49:56.813,d2:03:b8:43:8d:44, 2015-01-01 00:04:51.490, -0.045, 1, -0.095, -20.325, -4.578, 2.991, , , , , , , 95.532, 5.878, 8.795, 0.000, 0.000, 0.000,, 0.66714, 0.73953, 0.08771, 0.01495,,,
 11:49:56.814,d2:03:b8:43:8d:44, 2015-01-01 00:04:51.490, 0.042, 0.931, -0.09, -17.822, -2.258, -5.676, , , , , , , 95.334, 5.9, 8.756, 0.000, 0.000, 0.000,, 0.66714, 0.73953, 0.08771, 0.01495,,,
 11:49:56.814,d2:03:b8:43:8d:44, 2015-01-01 00:04:51.490, 0.052, 0.871, -0.106, -15.747, 7.751, -12.512, , , , , , , 95.169, 5.988, 8.795, 0.000, 0.000, 0.000,, 0.66714, 0.73953, 0.08771, 0.01495,,,
 11:49:56.814,d2:03:b8:43:8d:44, 2015-01-01 00:04:51.490, -0.255, 0.93, -0.078, -12.756, 19.47, -30.884, , , , , , , 95.048, 6.191, 8.97, 0.000, 0.000, 0.000,, 0.66714, 0.73953, 0.08771, 0.01495,,,
 11:49:56.815,d2:03:b8:43:8d:44, 2015-01-01 00:04:51.490, -0.243, 1.028, -0.024, -9.583, 1.77, -34.546, , , , , , , 94.949, 6.537, 9.102, 0.000, 0.000, 0.000,, 0.66714, 0.73953, 0.08771, 0.01495,,,
 11:49:56.815,d2:03:b8:43:8d:44, 2015-01-01 00:04:51.490, -0.141, 1.083, -0.1, -12.329, 1.16, -5.737, , , , , , , 94.845, 6.729, 9.135, 0.000, 0.000, 0.000,, 0.66714, 0.73953, 0.08771, 0.01495,,,
 11:49:56.815,d2:03:b8:43:8d:44, 2015-01-01 00:04:51.490, -0.099, 1.016, -0.077, -12.878, -2.075, 1.282, , , , , , , 94.713, 6.724, 9.119, 0.000, 0.000, 0.000,, 0.66714, 0.73953, 0.08771, 0.01495,,,
 11:49:56.816,d2:03:b8:43:8d:44, 2015-01-01 00:04:51.490, -0.197, 0.972, -0.072, -10.681, -4.028, -9.705, , , , , , , 94.592, 6.768, 9.097, 0.000, 0.000, 0.000,, 0.66714, 0.73953, 0.08771, 0.01495,,,
 11:49:56.816,d2:03:b8:43:8d:44, 2015-01-01 00:04:51.490, -0.123, 0.98, -0.061, -7.507, -13.611, -16.785, , , , , , , 94.493, 6.921, 9.009, 0.000, 0.000, 0.000,, 0.66714, 0.73953, 0.08771, 0.01495,,,
 11:49:56.816,d2:03:b8:43:8d:44, 2015-01-01 00:04:51.490, -0.03, 1.009, -0.079, -8.423, -12.939, -5.554, , , , , , , 94.4, 7.048, 8.877, 0.000, 0.000, 0.000,, 0.66714, 0.73953, 0.08771, 0.01495,,,
 11:49:56.817,d2:03:b8:43:8d:44, 2015-01-01 00:04:51.490, -0.042, 0.977, -0.077, -8.606, -5.493, -7.019, , , , , , , 94.301, 7.103, 8.789, 0.000, 0.000, 0.000,, 0.66714, 0.73953, 0.08771, 0.01495,,,
 11:49:56.851,d2:03:b8:43:8d:44, 2015-01-01 00:04:51.490, -0.104, 0.96, -0.073, -7.324, 0.305, -15.198, , , , , , , 94.219, 7.224, 8.773, 0.000, 0.000, 0.000,, 0.66714, 0.73953, 0.08771, 0.01495,,,
 11:49:56.851,d2:03:b8:43:8d:44, 2015-01-01 00:04:51.490, -0.171, 0.973, -0.068, -6.47, 3.357, -17.456, , , , , , , 94.153, 7.388, 8.811, 0.000, 0.000, 0.000,, 0.66714, 0.73953, 0.08771, 0.01495,,,
 11:49:56.877,d2:03:b8:43:8d:44, 2015-01-01 00:04:51.490, -0.186, 0.983, -0.052, -4.639, 0, -18.066, , , , , , , 94.098, 7.564, 8.839, 0.000, 0.000, 0.000,, 0.66714, 0.73953, 0.08771, 0.01495,,,
 11:49:56.877,d2:03:b8:43:8d:44, 2015-01-01 00:04:51.490, -0.175, 1.023, -0.074, -4.578, -2.441, -16.174, , , , , , , 94.054, 7.745, 8.833, 0.000, 0.000, 0.000,, 0.66714, 0.73953, 0.08771, 0.01495,,,
 11:49:56.877,d2:03:b8:43:8d:44, 2015-01-01 00:04:51.490, -0.158, 1.033, -0.079, -6.592, -1.465, -6.958, , , , , , , 93.994, 7.855, 8.822, 0.000, 0.000, 0.000,, 0.66714, 0.73953, 0.08771, 0.01495,,,
 11:49:56.878,d2:03:b8:43:8d:44, 2015-01-01 00:04:51.490, -0.128, 0.993, -0.067, -6.897, -3.296, -2.441, , , , , , , 93.922, 7.899, 8.8, 0.000, 0.000, 0.000,, 0.66714, 0.73953, 0.08771, 0.01495,,,
 11:49:56.878,d2:03:b8:43:8d:44, 2015-01-01 00:04:51.490, -0.122, 0.973, -0.074, -6.958, -3.845, -5.005, , , , , , , 93.845, 7.938, 8.762, 0.000, 0.000, 0.000,, 0.66714, 0.73953, 0.08771, 0.01495,,,
 11:49:56.879,d2:03:b8:43:8d:44, 2015-01-01 00:04:51.490, -0.144, 0.962, -0.06, -6.409, -4.089, -7.446, , , , , , , 93.774, 8.004, 8.729, 0.000, 0.000, 0.000,, 0.66714, 0.73953, 0.08771, 0.01495,,,
 11:49:56.879,d2:03:b8:43:8d:44, 2015-01-01 00:04:51.490, -0.161, 0.968, -0.062, -5.31, -5.127, -8.423, , , , , , , 93.708, 8.091, 8.685, 0.000, 0.000, 0.000,, 0.66714, 0.73953, 0.08771, 0.01495,,,
 11:49:56.879,d2:03:b8:43:8d:44, 2015-01-01 00:04:51.490, -0.084, 0.951, -0.073, -3.174, -8.057, -7.629, , , , , , , 93.653, 8.174, 8.619, 0.000, 0.000, 0.000,, 0.66714, 0.73953, 0.08771, 0.01495,,,
 11:49:56.880,d2:03:b8:43:8d:44, 2015-01-01 00:04:51.490, -0.105, 0.979, -0.042, -2.686, -6.714, -11.841, , , , , , , 93.615, 8.278, 8.547, 0.000, 0.000, 0.000,, 0.66714, 0.73953, 0.08771, 0.01495,,,
 11:49:56.880,d2:03:b8:43:8d:44, 2015-01-01 00:04:51.490, -0.176, 1.002, -0.081, -3.662, -0.305, -13.123, , , , , , , 93.582, 8.405, 8.525, 0.000, 0.000, 0.000,, 0.66714, 0.73953, 0.08771, 0.01495,,,
 11:49:56.916,d2:03:b8:43:8d:44, 2015-01-01 00:04:51.490, -0.155, 1.024, -0.078, -5.31, 0.122, -12.207, , , , , , , 93.532, 8.536, 8.531, 0.000, 0.000, 0.000,, 0.66714, 0.73953, 0.08771, 0.01495,,,
 11:49:56.916,d2:03:b8:43:8d:44, 2015-01-01 00:04:51.490, -0.08, 1.009, -0.083, -7.019, 2.38, -0.488, , , , , , , 93.472, 8.597, 8.542, 0.000, 0.000, 0.000,, 0.66714, 0.73953, 0.08771, 0.01495,,,
 11:49:56.916,d2:03:b8:43:8d:44, 2015-01-01 00:04:51.490, -0.119, 0.976, -0.071, -7.629, 8.362, -0.427, , , , , , , 93.406, 8.586, 8.597, 0.000, 0.000, 0.000,, 0.66714, 0.73953, 0.08771, 0.01495,,,
 11:49:56.916,d2:03:b8:43:8d:44, 2015-01-01 00:04:51.490, -0.227, 0.963, -0.051, -6.226, 9.521, -9.46, , , , , , , 93.351, 8.63, 8.696, 0.000, 0.000, 0.000,, 0.66714, 0.73953, 0.08771, 0.01495,,,
 11:49:57.089,d2:03:b8:43:8d:44, 2015-01-01 00:04:51.490, -0.262, 1.009, -0.029, -6.104, 5.127, -12.573, , , , , , , 93.301, 8.751, 8.778, 0.000, 0.000, 0.000,, 0.66714, 0.73953, 0.08771, 0.01495,,,
 11:49:57.312,d2:03:b8:43:8d:44, 2015-01-01 00:04:51.490, -0.173, 1.019, -0.055, -6.409, -0.916, 0, , , , , , , 93.241, 8.817, 8.795, 0.000, 0.000, 0.000,, 0.66714, 0.73953, 0.08771, 0.01495,,,
 11:49:57.392,d2:03:b8:43:8d:44, 2015-01-01 00:04:51.965, -0.212, 0.986, -0.049, -6.592, -4.028, 3.235, , , , , , , 93.164, 8.784, 8.767, 0.000, 0.000, 0.000,, 0.68127, 0.72324, 0.11264, -0.00104,,,
 11:49:57.392,d2:03:b8:43:8d:44, 2015-01-01 00:04:51.965, -0.245, 0.911, -0.142, -2.93, -8.118, -3.845, , , , , , , 93.104, 8.8, 8.712, 0.000, 0.000, 0.000,, 0.68127, 0.72324, 0.11264, -0.00104,,,
 11:49:57.420,d2:03:b8:43:8d:44, 2015-01-01 00:04:51.965, 0.081, 0.829, -0.433, 14.038, -16.785, -3.113, , , , , , , 93.142, 8.844, 8.569, 0.000, 0.000, 0.000,, 0.68127, 0.72324, 0.11264, -0.00104,,,
 11:49:57.421,d2:03:b8:43:8d:44, 2015-01-01 00:04:51.965, 0.165, 0.897, -0.567, 23.926, 12.512, 9.216, , , , , , , 93.334, 8.795, 8.547, 0.000, 0.000, 0.000,, 0.68127, 0.72324, 0.11264, -0.00104,,,
 11:49:57.421,d2:03:b8:43:8d:44, 2015-01-01 00:04:51.965, -0.323, 1.077, -0.121, 28.992, 29.785, -11.047, , , , , , , 93.664, 8.773, 8.762, 0.000, 0.000, 0.000,, 0.68127, 0.72324, 0.11264, -0.00104,,,
 11:49:57.422,d2:03:b8:43:8d:44, 2015-01-01 00:04:51.965, -0.414, 1.032, 0.192, 23.01, 13.306, -11.902, , , , , , , 93.944, 8.888, 8.97, 0.000, 0.000, 0.000,, 0.68127, 0.72324, 0.11264, -0.00104,,,
 11:49:57.422,d2:03:b8:43:8d:44, 2015-01-01 00:04:51.965, -0.053, 1.091, 0.3, 5.798, 5.066, 7.69, , , , , , , 94.087, 8.943, 9.108, 0.000, 0.000, 0.000,, 0.68127, 0.72324, 0.11264, -0.00104,,,
 11:49:57.422,d2:03:b8:43:8d:44, 2015-01-01 00:04:51.965, -0.107, 1.033, 0.05, -0.183, 0, 9.399, , , , , , , 94.109, 8.811, 9.075, 0.000, 0.000, 0.000,, 0.68127, 0.72324, 0.11264, -0.00104,,,
 11:49:57.423,d2:03:b8:43:8d:44, 2015-01-01 00:04:51.965, -0.259, 0.999, 0.04, -3.784, 2.014, -12.573, , , , , , , 94.092, 8.844, 9.102, 0.000, 0.000, 0.000,, 0.68127, 0.72324, 0.11264, -0.00104,,,
 11:49:57.423,d2:03:b8:43:8d:44, 2015-01-01 00:04:51.965, -0.197, 1.025, 0.02, -6.531, -4.272, -2.625, , , , , , , 94.037, 8.943, 9.091, 0.000, 0.000, 0.000,, 0.68127, 0.72324, 0.11264, -0.00104,,,
 11:49:57.423,d2:03:b8:43:8d:44, 2015-01-01 00:04:51.965, -0.102, 1.013, -0.04, -9.277, -5.92, 10.803, , , , , , , 93.944, 8.882, 9.036, 0.000, 0.000, 0.000,, 0.68127, 0.72324, 0.11264, -0.00104,,,
 11:49:57.424,d2:03:b8:43:8d:44, 2015-01-01 00:04:51.965, -0.117, 0.979, -0.071, -9.583, -4.822, 1.587, , , , , , , 93.834, 8.822, 8.97, 0.000, 0.000, 0.000,, 0.68127, 0.72324, 0.11264, -0.00104,,,
 11:49:57.424,d2:03:b8:43:8d:44, 2015-01-01 00:04:51.965, -0.158, 0.995, -0.079, -10.254, -1.465, -3.357, , , , , , , 93.73, 8.844, 8.937, 0.000, 0.000, 0.000,, 0.68127, 0.72324, 0.11264, -0.00104,,,
 11:49:57.424,d2:03:b8:43:8d:44, 2015-01-01 00:04:51.965, -0.125, 0.994, -0.094, -10.193, -1.099, -1.221, , , , , , , 93.625, 8.871, 8.926, 0.000, 0.000, 0.000,, 0.68127, 0.72324, 0.11264, -0.00104,,,
 11:49:57.424,d2:03:b8:43:8d:44, 2015-01-01 00:04:51.965, -0.116, 0.981, -0.107, -9.338, 1.526, 0.549, , , , , , , 93.527, 8.866, 8.926, 0.000, 0.000, 0.000,, 0.68127, 0.72324, 0.11264, -0.00104,,,
 11:49:57.424,d2:03:b8:43:8d:44, 2015-01-01 00:04:51.965, -0.212, 0.962, -0.109, -7.751, 5.127, -2.869, , , , , , , 93.444, 8.871, 8.97, 0.000, 0.000, 0.000,, 0.68127, 0.72324, 0.11264, -0.00104,,,
 11:49:57.424,d2:03:b8:43:8d:44, 2015-01-01 00:04:51.965, -0.198, 0.928, -0.178, -1.953, 1.465, -3.845, , , , , , , 93.4, 8.915, 9.009, 0.000, 0.000, 0.000,, 0.68127, 0.72324, 0.11264, -0.00104,,,
 11:49:57.424,d2:03:b8:43:8d:44, 2015-01-01 00:04:51.965, -0.003, 0.88, -0.38, 9.949, -0.183, 8.24, , , , , , , 93.444, 8.888, 9.003, 0.000, 0.000, 0.000,, 0.68127, 0.72324, 0.11264, -0.00104,,,
 11:49:57.426,d2:03:b8:43:8d:44, 2015-01-01 00:04:51.965, 0.013, 0.853, -0.602, 31.372, 8.301, 10.925, , , , , , , 93.658, 8.773, 8.981, 0.000, 0.000, 0.000,, 0.68127, 0.72324, 0.11264, -0.00104,,,
 11:49:57.426,d2:03:b8:43:8d:44, 2015-01-01 00:04:51.965, -0.4, 1.042, 0.01, 32.532, 16.113, -16.174, , , , , , , 93.999, 8.795, 9.212, 0.000, 0.000, 0.000,, 0.68127, 0.72324, 0.11264, -0.00104,,,
 11:49:57.426,d2:03:b8:43:8d:44, 2015-01-01 00:04:51.965, -0.4, 1.178, 0.705, 1.587, 13.916, -2.625, , , , , , , 94.175, 8.937, 9.426, 0.000, 0.000, 0.000,, 0.68127, 0.72324, 0.11264, -0.00104,,,
 11:49:57.426,d2:03:b8:43:8d:44, 2015-01-01 00:04:51.965, 0.058, 1.042, 0.247, -7.141, -21.851, 15.808, , , , , , , 94.103, 8.86, 9.294, 0.000, 0.000, 0.000,, 0.68127, 0.72324, 0.11264, -0.00104,,,
 11:49:57.426,d2:03:b8:43:8d:44, 2015-01-01 00:04:51.965, -0.127, 0.974, -0.12, -10.254, -1.953, 1.648, , , , , , , 93.988, 8.723, 9.19, 0.000, 0.000, 0.000,, 0.68127, 0.72324, 0.11264, -0.00104,,,
 11:49:57.426,d2:03:b8:43:8d:44, 2015-01-01 00:04:51.965, -0.259, 0.977, -0.069, -7.446, -0.549, -24.109, , , , , , , 93.906, 8.915, 9.196, 0.000, 0.000, 0.000,, 0.68127, 0.72324, 0.11264, -0.00104,,,
 11:49:57.426,d2:03:b8:43:8d:44, 2015-01-01 00:04:51.965, -0.174, 1.015, -0.052, -8.118, -2.625, -4.7, , , , , , , 93.829, 9.064, 9.185, 0.000, 0.000, 0.000,, 0.68127, 0.72324, 0.11264, -0.00104,,,
 11:49:57.428,d2:03:b8:43:8d:44, 2015-01-01 00:04:51.965, -0.167, 0.993, -0.066, -9.094, -2.686, 5.005, , , , , , , 93.73, 9.036, 9.152, 0.000, 0.000, 0.000,, 0.68127, 0.72324, 0.11264, -0.00104,,,
 11:49:57.428,d2:03:b8:43:8d:44, 2015-01-01 00:04:51.965, -0.143, 0.977, -0.048, -8.24, -5.371, -1.831, , , , , , , 93.636, 9.025, 9.113, 0.000, 0.000, 0.000,, 0.68127, 0.72324, 0.11264, -0.00104,,,
 11:49:57.428,d2:03:b8:43:8d:44, 2015-01-01 00:04:51.965, -0.089, 0.999, -0.083, -8.972, -4.761, 0.244, , , , , , , 93.543, 9.042, 9.053, 0.000, 0.000, 0.000,, 0.68127, 0.72324, 0.11264, -0.00104,,,
 11:49:57.429,d2:03:b8:43:8d:44, 2015-01-01 00:04:51.965, -0.138, 0.979, -0.078, -9.033, 0.122, -0.916, , , , , , , 93.45, 9.042, 9.031, 0.000, 0.000, 0.000,, 0.68127, 0.72324, 0.11264, -0.00104,,,
 11:49:57.429,d2:03:b8:43:8d:44, 2015-01-01 00:04:51.965, -0.217, 0.962, -0.046, -7.324, 1.526, -12.268, , , , , , , 93.367, 9.113, 9.047, 0.000, 0.000, 0.000,, 0.68127, 0.72324, 0.11264, -0.00104,,,
 11:49:57.429,d2:03:b8:43:8d:44, 2015-01-01 00:04:51.965, -0.186, 0.986, -0.029, -6.592, -2.502, -8.911, , , , , , , 93.296, 9.229, 9.047, 0.000, 0.000, 0.000,, 0.68127, 0.72324, 0.11264, -0.00104,,,
 11:49:57.429,d2:03:b8:43:8d:44, 2015-01-01 00:04:51.965, -0.151, 0.996, -0.061, -6.592, -2.502, 0, , , , , , , 93.224, 9.267, 9.02, 0.000, 0.000, 0.000,, 0.68127, 0.72324, 0.11264, -0.00104,,,
 11:49:57.429,d2:03:b8:43:8d:44, 2015-01-01 00:04:51.965, -0.134, 0.98, -0.049, -5.676, -2.38, -0.916, , , , , , , 93.159, 9.267, 8.992, 0.000, 0.000, 0.000,, 0.68127, 0.72324, 0.11264, -0.00104,,,
 11:49:57.431,d2:03:b8:43:8d:44, 2015-01-01 00:04:51.965, -0.144, 0.981, -0.058, -4.761, -1.404, -4.944, , , , , , , 93.104, 9.3, 8.97, 0.000, 0.000, 0.000,, 0.68127, 0.72324, 0.11264, -0.00104,,,
 11:49:57.431,d2:03:b8:43:8d:44, 2015-01-01 00:04:51.965, -0.129, 0.985, -0.069, -4.456, 1.648, -4.761, , , , , , , 93.054, 9.355, 8.976, 0.000, 0.000, 0.000,, 0.68127, 0.72324, 0.11264, -0.00104,,,
 11:49:57.431,d2:03:b8:43:8d:44, 2015-01-01 00:04:51.965, -0.145, 0.981, -0.066, -4.272, 6.042, -2.563, , , , , , , 93.016, 9.388, 9.02, 0.000, 0.000, 0.000,, 0.68127, 0.72324, 0.11264, -0.00104,,,
 11:49:57.431,d2:03:b8:43:8d:44, 2015-01-01 00:04:51.965, -0.232, 0.978, -0.055, -3.784, 9.033, -3.662, , , , , , , 92.988, 9.415, 9.102, 0.000, 0.000, 0.000,, 0.68127, 0.72324, 0.11264, -0.00104,,,
 11:49:57.431,d2:03:b8:43:8d:44, 2015-01-01 00:04:51.965, -0.255, 0.978, -0.024, -2.258, 3.967, -3.601, , , , , , , 92.972, 9.448, 9.174, 0.000, 0.000, 0.000,, 0.68127, 0.72324, 0.11264, -0.00104,,,
 11:49:57.431,d2:03:b8:43:8d:44, 2015-01-01 00:04:51.965, -0.167, 0.985, -0.031, -0.732, -4.944, 0, , , , , , , 92.955, 9.47, 9.157, 0.000, 0.000, 0.000,, 0.68127, 0.72324, 0.11264, -0.00104,,,
 11:49:57.432,d2:03:b8:43:8d:44, 2015-01-01 00:04:51.965, -0.119, 0.984, -0.079, -0.305, -5.92, 4.517, , , , , , , 92.939, 9.443, 9.091, 0.000, 0.000, 0.000,, 0.68127, 0.72324, 0.11264, -0.00104,,,
 11:49:57.432,d2:03:b8:43:8d:44, 2015-01-01 00:04:51.965, -0.129, 0.969, -0.093, 0.793, -1.709, -0.549, , , , , , , 92.933, 9.426, 9.053, 0.000, 0.000, 0.000,, 0.68127, 0.72324, 0.11264, -0.00104,,,
 11:49:57.432,d2:03:b8:43:8d:44, 2015-01-01 00:04:51.965, -0.169, 0.971, -0.09, 1.831, 2.197, -0.549, , , , , , , 92.944, 9.432, 9.058, 0.000, 0.000, 0.000,, 0.68127, 0.72324, 0.11264, -0.00104,,,
 11:49:57.432,d2:03:b8:43:8d:44, 2015-01-01 00:04:51.965, -0.11, 0.935, -0.145, 5.615, 2.014, -0.122, , , , , , , 92.983, 9.437, 9.086, 0.000, 0.000, 0.000,, 0.68127, 0.72324, 0.11264, -0.00104,,,
 11:49:57.433,d2:03:b8:43:8d:44, 2015-01-01 00:04:51.965, -0.157, 0.967, -0.125, 9.216, 4.883, -5.188, , , , , , , 93.071, 9.465, 9.113, 0.000, 0.000, 0.000,, 0.68127, 0.72324, 0.11264, -0.00104,,,
 11:49:57.433,d2:03:b8:43:8d:44, 2015-01-01 00:04:51.965, -0.273, 0.994, -0.041, 8.667, 5.798, -8.118, , , , , , , 93.17, 9.531, 9.19, 0.000, 0.000, 0.000,, 0.68127, 0.72324, 0.11264, -0.00104,,,
 11:49:57.434,d2:03:b8:43:8d:44, 2015-01-01 00:04:51.965, -0.074, 0.89, -0.277, 17.7, -7.446, -0.488, , , , , , , 93.285, 9.586, 9.185, 0.000, 0.000, 0.000,, 0.68127, 0.72324, 0.11264, -0.00104,,,
 11:49:57.434,d2:03:b8:43:8d:44, 2015-01-01 00:04:51.965, 0.216, 0.814, -0.729, 38.452, -5.31, 10.803, , , , , , , 93.554, 9.531, 9.113, 0.000, 0.000, 0.000,, 0.68127, 0.72324, 0.11264, -0.00104,,,
 11:49:57.434,d2:03:b8:43:8d:44, 2015-01-01 00:04:51.965, -0.579, 0.973, -0.763, 60.425, 30.64, -5.615, , , , , , , 94.103, 9.448, 9.168, 0.000, 0.000, 0.000,, 0.68127, 0.72324, 0.11264, -0.00104,,,
 11:49:57.434,d2:03:b8:43:8d:44, 2015-01-01 00:04:51.965, -0.044, 0.925, -0.108, 65.308, 3.723, -11.719, , , , , , , 94.735, 9.591, 9.591, 0.000, 0.000, 0.000,, 0.68127, 0.72324, 0.11264, -0.00104,,,
 11:49:57.435,d2:03:b8:43:8d:44, 2015-01-01 00:04:51.965, -0.146, 1.167, -0.227, 69.336, -4.761, 53.894, , , , , , , 95.46, 9.36, 9.245, 0.000, 0.000, 0.000,, 0.68127, 0.72324, 0.11264, -0.00104,,,
 11:49:57.522,d2:03:b8:43:8d:44, 2015-01-01 00:04:51.965, -0.063, 0.938, 0.013, 63.599, 6.409, 12.207, , , , , , , 96.092, 8.959, 9.355, 0.000, 0.000, 0.000,, 0.68127, 0.72324, 0.11264, -0.00104,,,
 11:49:57.556,d2:03:b8:43:8d:44, 2015-01-01 00:04:51.965, -0.154, 1.009, -0.059, 60.181, 14.465, -15.198, , , , , , , 96.729, 9.069, 9.443, 0.000, 0.000, 0.000,, 0.68127, 0.72324, 0.11264, -0.00104,,,
 11:49:57.556,d2:03:b8:43:8d:44, 2015-01-01 00:04:51.965, -0.138, 1.074, 0.074, 49.805, 19.043, 11.292, , , , , , , 97.311, 9.025, 9.63, 0.000, 0.000, 0.000,, 0.68127, 0.72324, 0.11264, -0.00104,,,
 11:49:57.556,d2:03:b8:43:8d:44, 2015-01-01 00:04:51.965, -0.209, 1.057, 0.22, 37.476, 9.705, 8.911, , , , , , , 97.762, 8.904, 9.756, 0.000, 0.000, 0.000,, 0.68127, 0.72324, 0.11264, -0.00104,,,
 11:49:57.593,d2:03:b8:43:8d:44, 2015-01-01 00:04:51.965, -0.412, 1.06, 0.282, 20.081, 8.24, 12.207, , , , , , , 98.053, 8.778, 9.838, 0.000, 0.000, 0.000,, 0.68127, 0.72324, 0.11264, -0.00104,,,
 11:49:57.593,d2:03:b8:43:8d:44, 2015-01-01 00:04:51.965, -0.212, 1.062, 0.454, 2.441, -18.555, 1.892, , , , , , , 98.152, 8.734, 9.767, 0.000, 0.000, 0.000,, 0.68127, 0.72324, 0.11264, -0.00104,,,
 11:49:57.593,d2:03:b8:43:8d:44, 2015-01-01 00:04:51.965, -0.073, 1.047, 0.056, -13.794, -14.465, 15.32, , , , , , , 98.036, 8.679, 9.564, 0.000, 0.000, 0.000,, 0.68127, 0.72324, 0.11264, -0.00104,,,
 11:49:57.593,d2:03:b8:43:8d:44, 2015-01-01 00:04:51.965, -0.139, 0.966, -0.144, -17.883, -6.531, 5.676, , , , , , , 97.85, 8.558, 9.47, 0.000, 0.000, 0.000,, 0.68127, 0.72324, 0.11264, -0.00104,,,
 11:49:57.594,d2:03:b8:43:8d:44, 2015-01-01 00:04:51.965, -0.181, 0.968, -0.136, -15.442, -11.78, -6.042, , , , , , , 97.674, 8.613, 9.349, 0.000, 0.000, 0.000,, 0.68127, 0.72324, 0.11264, -0.00104,,,
 11:49:57.595,d2:03:b8:43:8d:44, 2015-01-01 00:04:51.965, -0.151, 1, -0.152, -19.775, -0.305, 4.028, , , , , , , 97.487, 8.624, 9.311, 0.000, 0.000, 0.000,, 0.68127, 0.72324, 0.11264, -0.00104,,,
 11:49:57.595,d2:03:b8:43:8d:44, 2015-01-01 00:04:51.965, -0.112, 0.981, -0.125, -19.714, -3.845, 5.371, , , , , , , 97.284, 8.569, 9.278, 0.000, 0.000, 0.000,, 0.68127, 0.72324, 0.11264, -0.00104,,,
 11:49:57.595,d2:03:b8:43:8d:44, 2015-01-01 00:04:51.965, -0.156, 0.984, -0.153, -21.545, 6.409, -0.305, , , , , , , 97.075, 8.547, 9.272, 0.000, 0.000, 0.000,, 0.68127, 0.72324, 0.11264, -0.00104,,,
 11:49:57.595,d2:03:b8:43:8d:44, 2015-01-01 00:04:51.965, -0.105, 0.98, -0.109, -21.057, 1.465, -0.366, , , , , , , 96.866, 8.542, 9.338, 0.000, 0.000, 0.000,, 0.68127, 0.72324, 0.11264, -0.00104,,,
 11:49:57.596,d2:03:b8:43:8d:44, 2015-01-01 00:04:51.965, -0.174, 0.979, -0.16, -19.714, 2.991, -6.287, , , , , , , 96.669, 8.575, 9.327, 0.000, 0.000, 0.000,, 0.68127, 0.72324, 0.11264, -0.00104,,,
 11:49:57.596,d2:03:b8:43:8d:44, 2015-01-01 00:04:51.965, -0.141, 0.943, -0.253, -15.93, 3.052, -7.08, , , , , , , 96.487, 8.646, 9.382, 0.000, 0.000, 0.000,, 0.68127, 0.72324, 0.11264, -0.00104,,,
 11:49:57.596,d2:03:b8:43:8d:44, 2015-01-01 00:04:51.965, -0.172, 0.944, -0.307, -11.047, 11.536, -3.784, , , , , , , 96.372, 8.69, 9.459, 0.000, 0.000, 0.000,, 0.68127, 0.72324, 0.11264, -0.00104,,,
 11:49:57.596,d2:03:b8:43:8d:44, 2015-01-01 00:04:51.965, -0.196, 0.979, -0.152, -6.836, 6.836, -0.732, , , , , , , 96.301, 8.701, 9.569, 0.000, 0.000, 0.000,, 0.68127, 0.72324, 0.11264, -0.00104,,,
 11:49:57.597,d2:03:b8:43:8d:44, 2015-01-01 00:04:51.965, -0.098, 0.98, -0.097, -5.066, -2.93, 6.531, , , , , , , 96.24, 8.663, 9.575, 0.000, 0.000, 0.000,, 0.68127, 0.72324, 0.11264, -0.00104,,,
 11:49:57.597,d2:03:b8:43:8d:44, 2015-01-01 00:04:51.965, -0.158, 0.998, -0.092, -6.409, 3.601, 6.409, , , , , , , 96.185, 8.591, 9.569, 0.000, 0.000, 0.000,, 0.68127, 0.72324, 0.11264, -0.00104,,,
 11:49:57.597,d2:03:b8:43:8d:44, 2015-01-01 00:04:51.965, -0.148, 0.975, -0.021, -6.897, -2.136, -3.723, , , , , , , 96.114, 8.58, 9.586, 0.000, 0.000, 0.000,, 0.68127, 0.72324, 0.11264, -0.00104,,,
 11:49:57.649,d2:03:b8:43:8d:44, 2015-01-01 00:04:51.965, -0.159, 0.998, -0.067, -8.484, -2.38, -3.906, , , , , , , 96.031, 8.63, 9.558, 0.000, 0.000, 0.000,, 0.68127, 0.72324, 0.11264, -0.00104,,,
 11:49:57.650,d2:03:b8:43:8d:44, 2015-01-01 00:04:51.965, -0.168, 0.993, -0.112, -10.681, 2.319, 1.221, , , , , , , 95.933, 8.646, 9.575, 0.000, 0.000, 0.000,, 0.66995, 0.7338, 0.11212, -3E-05,,,
 11:49:57.650,d2:03:b8:43:8d:44, 2015-01-01 00:04:51.965, -0.117, 0.944, -0.212, -5.554, -2.563, 0.244, , , , , , , 95.845, 8.63, 9.569, 0.000, 0.000, 0.000,, 0.66995, 0.7338, 0.11212, -3E-05,,,
 11:49:57.746,d2:03:b8:43:8d:44, 2015-01-01 00:04:51.965, -0.15, 0.968, -0.229, -3.418, 6.714, 3.235, , , , , , , 95.806, 8.619, 9.586, 0.000, 0.000, 0.000,, 0.66995, 0.7338, 0.11212, -3E-05,,,
 11:49:57.804,d2:03:b8:43:8d:44, 2015-01-01 00:04:52.500, -0.135, 0.952, -0.211, 3.174, 1.099, 1.77, , , , , , , 95.812, 8.591, 9.624, 0.000, 0.000, 0.000,, 0.66995, 0.7338, 0.11212, -3E-05,,,
 11:49:57.804,d2:03:b8:43:8d:44, 2015-01-01 00:04:52.500, -0.134, 0.976, -0.12, 4.395, 1.953, 2.197, , , , , , , 95.85, 8.569, 9.646, 0.000, 0.000, 0.000,, 0.66995, 0.7338, 0.11212, -3E-05,,,
 11:49:57.804,d2:03:b8:43:8d:44, 2015-01-01 00:04:52.500, -0.145, 0.997, -0.05, 2.93, 2.136, 3.479, , , , , , , 95.889, 8.542, 9.668, 0.000, 0.000, 0.000,, 0.66995, 0.7338, 0.11212, -3E-05,,,
 11:49:57.804,d2:03:b8:43:8d:44, 2015-01-01 00:04:52.500, -0.221, 1.054, 0.193, -8.667, 10.498, 0.977, , , , , , , 95.872, 8.509, 9.728, 0.000, 0.000, 0.000,, 0.66995, 0.7338, 0.11212, -3E-05,,,
 11:49:57.805,d2:03:b8:43:8d:44, 2015-01-01 00:04:52.500, -0.108, 1.032, 0.214, -18.25, -2.625, -3.723, , , , , , , 95.729, 8.52, 9.778, 0.000, 0.000, 0.000,, 0.66995, 0.7338, 0.11212, -3E-05,,,
 11:49:57.805,d2:03:b8:43:8d:44, 2015-01-01 00:04:52.500, -0.13, 0.998, -0.125, -19.775, 2.014, -0.671, , , , , , , 95.537, 8.542, 9.745, 0.000, 0.000, 0.000,, 0.66995, 0.7338, 0.11212, -3E-05,,,
 11:49:57.805,d2:03:b8:43:8d:44, 2015-01-01 00:04:52.500, -0.14, 0.972, -0.124, -18.555, 2.93, -6.409, , , , , , , 95.345, 8.575, 9.783, 0.000, 0.000, 0.000,, 0.66995, 0.7338, 0.11212, -3E-05,,,
 11:49:57.805,d2:03:b8:43:8d:44, 2015-01-01 00:04:52.500, -0.149, 0.985, -0.155, -16.846, 7.324, -5.188, , , , , , , 95.18, 8.641, 9.844, 0.000, 0.000, 0.000,, 0.66995, 0.7338, 0.11212, -3E-05,,,
 11:49:57.806,d2:03:b8:43:8d:44, 2015-01-01 00:04:52.500, -0.17, 0.98, -0.09, -16.235, 7.629, -4.456, , , , , , , 95.026, 8.674, 9.926, 0.000, 0.000, 0.000,, 0.66995, 0.7338, 0.11212, -3E-05,,,
 11:49:57.806,d2:03:b8:43:8d:44, 2015-01-01 00:04:52.500, -0.164, 0.979, 0.002, -14.832, -0.854, -9.644, , , , , , , 94.878, 8.74, 9.976, 0.000, 0.000, 0.000,, 0.66995, 0.7338, 0.11212, -3E-05,,,
 11:49:57.806,d2:03:b8:43:8d:44, 2015-01-01 00:04:52.500, -0.14, 0.993, -0.044, -14.587, -5.066, -9.033, , , , , , , 94.724, 8.844, 9.937, 0.000, 0.000, 0.000,, 0.66995, 0.7338, 0.11212, -3E-05,,,
 11:49:57.806,d2:03:b8:43:8d:44, 2015-01-01 00:04:52.500, -0.144, 0.982, -0.11, -13.794, -2.808, -8.972, , , , , , , 94.576, 8.932, 9.904, 0.000, 0.000, 0.000,, 0.66995, 0.7338, 0.11212, -3E-05,,,
 11:49:57.822,d2:03:b8:43:8d:44, 2015-01-01 00:04:52.500, -0.159, 0.972, -0.135, -11.108, -1.221, -10.01, , , , , , , 94.449, 9.031, 9.888, 0.000, 0.000, 0.000,, 0.66995, 0.7338, 0.11212, -3E-05,,,
 11:49:57.822,d2:03:b8:43:8d:44, 2015-01-01 00:04:52.500, -0.174, 0.994, -0.036, -11.108, 0.549, -10.498, , , , , , , 94.34, 9.135, 9.899, 0.000, 0.000, 0.000,, 0.66995, 0.7338, 0.11212, -3E-05,,,
 11:49:57.822,d2:03:b8:43:8d:44, 2015-01-01 00:04:52.500, -0.16, 0.993, -0.048, -11.292, -0.488, -8.484, , , , , , , 94.23, 9.234, 9.899, 0.000, 0.000, 0.000,, 0.66995, 0.7338, 0.11212, -3E-05,,,
 11:49:57.822,d2:03:b8:43:8d:44, 2015-01-01 00:04:52.500, -0.167, 0.989, -0.042, -11.353, -0.671, -7.874, , , , , , , 94.114, 9.305, 9.904, 0.000, 0.000, 0.000,, 0.66995, 0.7338, 0.11212, -3E-05,,,
 11:49:57.822,d2:03:b8:43:8d:44, 2015-01-01 00:04:52.500, -0.162, 0.985, -0.054, -10.376, -2.197, -10.986, , , , , , , 93.999, 9.41, 9.888, 0.000, 0.000, 0.000,, 0.66995, 0.7338, 0.11212, -3E-05,,,
 11:49:57.822,d2:03:b8:43:8d:44, 2015-01-01 00:04:52.500, -0.163, 0.99, -0.057, -10.193, -0.977, -9.46, , , , , , , 93.895, 9.509, 9.882, 0.000, 0.000, 0.000,, 0.66995, 0.7338, 0.11212, -3E-05,,,
 11:49:57.822,d2:03:b8:43:8d:44, 2015-01-01 00:04:52.500, -0.172, 0.983, -0.06, -9.216, -1.282, -10.864, , , , , , , 93.796, 9.613, 9.877, 0.000, 0.000, 0.000,, 0.66995, 0.7338, 0.11212, -3E-05,,,
 11:49:57.823,d2:03:b8:43:8d:44, 2015-01-01 00:04:52.500, -0.196, 0.985, -0.071, -8.911, -0.122, -10.559, , , , , , , 93.708, 9.723, 9.871, 0.000, 0.000, 0.000,, 0.66995, 0.7338, 0.11212, -3E-05,,,
 11:49:57.967,d2:03:b8:43:8d:44, 2015-01-01 00:04:52.500, -0.161, 0.985, -0.037, -8.606, -1.648, -8.972, , , , , , , 93.615, 9.816, 9.871, 0.000, 0.000, 0.000,, 0.66995, 0.7338, 0.11212, -3E-05,,,
 11:49:58.024,d2:03:b8:43:8d:44, 2015-01-01 00:04:52.500, -0.153, 0.993, -0.067, -8.911, -0.549, -4.761, , , , , , , 93.527, 9.893, 9.855, 0.000, 0.000, 0.000,, 0.66995, 0.7338, 0.11212, -3E-05,,,
 11:49:58.025,d2:03:b8:43:8d:44, 2015-01-01 00:04:52.500, -0.178, 0.974, -0.053, -8.423, 0.427, -8.423, , , , , , , 93.439, 9.948, 9.86, 0.000, 0.000, 0.000,, 0.66995, 0.7338, 0.11212, -3E-05,,,
 11:49:58.025,d2:03:b8:43:8d:44, 2015-01-01 00:04:52.500, -0.192, 0.98, -0.047, -7.385, -0.549, -11.658, , , , , , , 93.362, 10.063, 9.866, 0.000, 0.000, 0.000,, 0.66995, 0.7338, 0.11212, -3E-05,,,
 11:49:58.041,d2:03:b8:43:8d:44, 2015-01-01 00:04:52.500, -0.169, 0.991, -0.058, -7.507, -0.427, -6.897, , , , , , , 93.285, 10.151, 9.866, 0.000, 0.000, 0.000,, 0.66995, 0.7338, 0.11212, -3E-05,,,
 11:49:58.041,d2:03:b8:43:8d:44, 2015-01-01 00:04:52.500, -0.168, 0.976, -0.057, -6.897, -0.549, -6.714, , , , , , , 93.214, 10.217, 9.86, 0.000, 0.000, 0.000,, 0.66995, 0.7338, 0.11212, -3E-05,,,
 11:49:58.041,d2:03:b8:43:8d:44, 2015-01-01 00:04:52.500, -0.195, 0.977, -0.047, -6.226, -0.427, -10.559, , , , , , , 93.148, 10.305, 9.86, 0.000, 0.000, 0.000,, 0.66995, 0.7338, 0.11212, -3E-05,,,
 11:49:58.041,d2:03:b8:43:8d:44, 2015-01-01 00:04:52.500, -0.193, 0.985, -0.053, -5.981, -1.038, -9.155, , , , , , , 93.082, 10.415, 9.855, 0.000, 0.000, 0.000,, 0.66995, 0.7338, 0.11212, -3E-05,,,
 11:49:58.041,d2:03:b8:43:8d:44, 2015-01-01 00:04:52.500, -0.182, 0.987, -0.063, -5.981, -0.244, -6.104, , , , , , , 93.021, 10.486, 9.849, 0.000, 0.000, 0.000,, 0.66995, 0.7338, 0.11212, -3E-05,,,
 11:49:58.041,d2:03:b8:43:8d:44, 2015-01-01 00:04:52.500, -0.194, 0.98, -0.06, -5.798, 1.526, -3.723, , , , , , , 92.961, 10.53, 9.86, 0.000, 0.000, 0.000,, 0.66995, 0.7338, 0.11212, -3E-05,,,
 11:49:58.042,d2:03:b8:43:8d:44, 2015-01-01 00:04:52.500, -0.185, 0.975, -0.054, -4.822, 0, -5.005, , , , , , , 92.911, 10.574, 9.871, 0.000, 0.000, 0.000,, 0.66995, 0.7338, 0.11212, -3E-05,,,
 11:49:58.042,d2:03:b8:43:8d:44, 2015-01-01 00:04:52.500, -0.192, 0.971, -0.094, -3.479, 1.526, -3.174, , , , , , , 92.867, 10.618, 9.877, 0.000, 0.000, 0.000,, 0.66995, 0.7338, 0.11212, -3E-05,,,
 11:49:58.042,d2:03:b8:43:8d:44, 2015-01-01 00:04:52.500, -0.151, 0.945, -0.097, -0.793, 1.526, -3.052, , , , , , , 92.851, 10.64, 9.899, 0.000, 0.000, 0.000,, 0.66995, 0.7338, 0.11212, -3E-05,,,
 11:49:58.042,d2:03:b8:43:8d:44, 2015-01-01 00:04:52.500, -0.121, 0.929, -0.207, 5.798, 3.723, -4.456, , , , , , , 92.878, 10.684, 9.915, 0.000, 0.000, 0.000,, 0.66995, 0.7338, 0.11212, -3E-05,,,
 11:49:58.042,d2:03:b8:43:8d:44, 2015-01-01 00:04:52.500, -0.304, 0.969, -0.093, 7.874, 10.742, -8.362, , , , , , , 92.972, 10.739, 10.003, 0.000, 0.000, 0.000,, 0.66995, 0.7338, 0.11212, -3E-05,,,
 11:49:58.042,d2:03:b8:43:8d:44, 2015-01-01 00:04:52.500, -0.207, 0.996, 0.083, 7.263, -1.526, -10.01, , , , , , , 93.054, 10.849, 10.063, 0.000, 0.000, 0.000,, 0.66995, 0.7338, 0.11212, -3E-05,,,
 11:49:58.043,d2:03:b8:43:8d:44, 2015-01-01 00:04:52.500, -0.113, 1.025, -0.059, 4.272, -2.075, 9.827, , , , , , , 93.104, 10.844, 10.014, 0.000, 0.000, 0.000,, 0.66995, 0.7338, 0.11212, -3E-05,,,
 11:49:58.043,d2:03:b8:43:8d:44, 2015-01-01 00:04:52.500, -0.206, 0.97, -0.067, 3.906, 3.662, 5.066, , , , , , , 93.142, 10.739, 10.025, 0.000, 0.000, 0.000,, 0.66995, 0.7338, 0.11212, -3E-05,,,
 11:49:58.043,d2:03:b8:43:8d:44, 2015-01-01 00:04:52.500, -0.305, 0.956, -0.043, 5.31, -0.854, -8.606, , , , , , , 93.186, 10.783, 10.052, 0.000, 0.000, 0.000,, 0.66995, 0.7338, 0.11212, -3E-05,,,
 11:49:58.043,d2:03:b8:43:8d:44, 2015-01-01 00:04:52.500, -0.076, 0.826, -0.529, 21.362, -12.756, 5.615, , , , , , , 93.296, 10.811, 9.981, 0.000, 0.000, 0.000,, 0.66995, 0.7338, 0.11212, -3E-05,,,
 11:49:58.059,d2:03:b8:43:8d:44, 2015-01-01 00:04:52.500, -0.031, 0.76, -0.915, 53.528, -10.559, 13.855, , , , , , , 93.658, 10.701, 9.811, 0.000, 0.000, 0.000,, 0.67694, 0.72501, 0.12625, -0.00897,,,
 11:49:58.059,d2:03:b8:43:8d:44, 2015-01-01 00:04:52.500, -0.317, 1.046, -0.357, 57.129, 23.438, -7.324, , , , , , , 94.252, 10.662, 9.965, 0.000, 0.000, 0.000,, 0.67694, 0.72501, 0.12625, -0.00897,,,
 11:49:58.059,d2:03:b8:43:8d:44, 2015-01-01 00:04:52.500, -0.342, 1.134, 0.058, 55.664, 3.601, 21.851, , , , , , , 94.856, 10.596, 10.014, 0.000, 0.000, 0.000,, 0.67694, 0.72501, 0.12625, -0.00897,,,
 11:49:58.060,d2:03:b8:43:8d:44, 2015-01-01 00:04:52.500, 0.081, 0.935, 0.112, 45.654, 0.366, 15.808, , , , , , , 95.328, 10.344, 10.129, 0.000, 0.000, 0.000,, 0.67694, 0.72501, 0.12625, -0.00897,,,
 11:49:58.193,d2:03:b8:43:8d:44, 2015-01-01 00:04:52.920, -0.058, 1.058, 0.023, 40.283, 4.272, -3.845, , , , , , , 95.768, 10.349, 10.052, 0.000, 0.000, 0.000,, 0.67694, 0.72501, 0.12625, -0.00897,,,
 11:49:58.247,d2:03:b8:43:8d:44, 2015-01-01 00:04:52.920, -0.487, 1.146, 0.355, 15.564, 33.081, -3.906, , , , , , , 96.097, 10.338, 10.267, 0.000, 0.000, 0.000,, 0.67694, 0.72501, 0.12625, -0.00897,,,
 11:49:58.247,d2:03:b8:43:8d:44, 2015-01-01 00:04:52.920, -0.229, 1.056, 0.674, -6.775, -2.075, -3.174, , , , , , , 96.141, 10.382, 10.503, 0.000, 0.000, 0.000,, 0.67694, 0.72501, 0.12625, -0.00897,,,
 11:49:58.247,d2:03:b8:43:8d:44, 2015-01-01 00:04:52.920, -0.089, 1.053, -0.011, -13.184, -23.071, 17.761, , , , , , , 95.999, 10.338, 10.261, 0.000, 0.000, 0.000,, 0.67694, 0.72501, 0.12625, -0.00897,,,
 11:49:58.263,d2:03:b8:43:8d:44, 2015-01-01 00:04:52.920, -0.15, 0.98, -0.152, -19.531, -3.418, 6.592, , , , , , , 95.801, 10.19, 10.14, 0.000, 0.000, 0.000,, 0.67694, 0.72501, 0.12625, -0.00897,,,
 11:49:58.263,d2:03:b8:43:8d:44, 2015-01-01 00:04:52.920, -0.25, 0.975, -0.107, -21.484, 2.136, -5.92, , , , , , , 95.592, 10.217, 10.157, 0.000, 0.000, 0.000,, 0.67694, 0.72501, 0.12625, -0.00897,,,
 11:49:58.263,d2:03:b8:43:8d:44, 2015-01-01 00:04:52.920, -0.162, 0.997, -0.09, -21.973, -7.935, 4.578, , , , , , , 95.367, 10.234, 10.124, 0.000, 0.000, 0.000,, 0.67694, 0.72501, 0.12625, -0.00897,,,
 11:49:58.263,d2:03:b8:43:8d:44, 2015-01-01 00:04:52.920, -0.119, 0.988, -0.112, -23.071, -7.385, 10.864, , , , , , , 95.125, 10.151, 10.014, 0.000, 0.000, 0.000,, 0.67694, 0.72501, 0.12625, -0.00897,,,
 11:49:58.264,d2:03:b8:43:8d:44, 2015-01-01 00:04:52.920, -0.202, 0.975, -0.106, -24.536, 0.732, 1.099, , , , , , , 94.878, 10.085, 9.998, 0.000, 0.000, 0.000,, 0.67694, 0.72501, 0.12625, -0.00897,,,
 11:49:58.264,d2:03:b8:43:8d:44, 2015-01-01 00:04:52.920, -0.137, 0.984, -0.071, -22.644, -6.592, -2.747, , , , , , , 94.636, 10.118, 9.959, 0.000, 0.000, 0.000,, 0.67694, 0.72501, 0.12625, -0.00897,,,
 11:49:58.264,d2:03:b8:43:8d:44, 2015-01-01 00:04:52.920, -0.15, 0.996, -0.133, -22.644, -1.221, 4.517, , , , , , , 94.4, 10.102, 9.91, 0.000, 0.000, 0.000,, 0.67694, 0.72501, 0.12625, -0.00897,,,
 11:49:58.264,d2:03:b8:43:8d:44, 2015-01-01 00:04:52.920, -0.13, 0.968, -0.141, -20.142, -0.061, -4.211, , , , , , , 94.18, 10.102, 9.915, 0.000, 0.000, 0.000,, 0.67694, 0.72501, 0.12625, -0.00897,,,
 11:49:58.265,d2:03:b8:43:8d:44, 2015-01-01 00:04:52.920, -0.069, 0.994, -0.188, -17.09, 6.165, -0.793, , , , , , , 94.01, 10.146, 9.926, 0.000, 0.000, 0.000,, 0.67694, 0.72501, 0.12625, -0.00897,,,
 11:49:58.265,d2:03:b8:43:8d:44, 2015-01-01 00:04:52.920, -0.215, 1.014, -0.083, -19.775, 19.47, 4.761, , , , , , , 93.845, 10.096, 10.069, 0.000, 0.000, 0.000,, 0.67694, 0.72501, 0.12625, -0.00897,,,
 11:49:58.265,d2:03:b8:43:8d:44, 2015-01-01 00:04:52.920, -0.401, 0.976, -0.024, -19.897, 18.188, -2.075, , , , , , , 93.68, 10.074, 10.278, 0.000, 0.000, 0.000,, 0.67694, 0.72501, 0.12625, -0.00897,,,
 11:49:58.266,d2:03:b8:43:8d:44, 2015-01-01 00:04:52.920, -0.233, 0.95, -0.056, -13.428, -8.545, 2.136, , , , , , , 93.521, 10.096, 10.3, 0.000, 0.000, 0.000,, 0.67694, 0.72501, 0.12625, -0.00897,,,
 11:49:58.266,d2:03:b8:43:8d:44, 2015-01-01 00:04:52.920, -0.116, 0.841, -0.509, -2.075, -8.24, 24.414, , , , , , , 93.411, 9.948, 10.206, 0.000, 0.000, 0.000,, 0.67694, 0.72501, 0.12625, -0.00897,,,
 11:49:58.267,d2:03:b8:43:8d:44, 2015-01-01 00:04:52.920, 0.127, 0.576, -1.255, 41.199, -4.517, 25.757, , , , , , , 93.593, 9.679, 10.113, 0.000, 0.000, 0.000,, 0.67694, 0.72501, 0.12625, -0.00897,,,
 11:49:58.267,d2:03:b8:43:8d:44, 2015-01-01 00:04:52.920, -0.175, 0.926, -0.874, 75.867, 21.851, -13.55, , , , , , , 94.252, 9.619, 10.157, 0.000, 0.000, 0.000,, 0.67694, 0.72501, 0.12625, -0.00897,,,
 11:49:58.267,d2:03:b8:43:8d:44, 2015-01-01 00:04:52.920, -0.365, 1.275, 0.211, 61.279, 41.748, 18.433, , , , , , , 95.032, 9.608, 10.514, 0.000, 0.000, 0.000,, 0.67694, 0.72501, 0.12625, -0.00897,,,
 11:49:58.410,d2:03:b8:43:8d:44, 2015-01-01 00:04:52.920, -0.026, 0.983, 0.293, 59.57, -12.451, 40.771, , , , , , , 95.62, 9.196, 10.64, 0.000, 0.000, 0.000,, 0.67694, 0.72501, 0.12625, -0.00897,,,
 11:49:58.466,d2:03:b8:43:8d:44, 2015-01-01 00:04:52.920, -0.173, 1.113, 0.433, 36.743, 7.507, -1.831, , , , , , , 96.097, 9.08, 10.58, 0.000, 0.000, 0.000,, 0.67694, 0.72501, 0.12625, -0.00897,,,
 11:49:58.466,d2:03:b8:43:8d:44, 2015-01-01 00:04:52.920, -0.337, 1.147, 0.577, 6.47, 7.507, 1.953, , , , , , , 96.306, 9.075, 10.684, 0.000, 0.000, 0.000,, 0.67694, 0.72501, 0.12625, -0.00897,,,
 11:49:58.466,d2:03:b8:43:8d:44, 2015-01-01 00:04:52.920, -0.168, 1.087, 0.518, -16.724, -4.517, 5.188, , , , , , , 96.246, 9.036, 10.69, 0.000, 0.000, 0.000,, 0.67694, 0.72501, 0.12625, -0.00897,,,
 11:49:58.482,d2:03:b8:43:8d:44, 2015-01-01 00:04:52.920, -0.081, 1.046, 0.011, -26.672, -11.658, 17.09, , , , , , , 95.988, 8.932, 10.563, 0.000, 0.000, 0.000,, 0.67694, 0.72501, 0.12625, -0.00897,,,
 11:49:58.482,d2:03:b8:43:8d:44, 2015-01-01 00:04:52.920, -0.143, 0.975, -0.128, -29.663, 0, 5.493, , , , , , , 95.691, 8.806, 10.519, 0.000, 0.000, 0.000,, 0.67694, 0.72501, 0.12625, -0.00897,,,
 11:49:58.483,d2:03:b8:43:8d:44, 2015-01-01 00:04:52.920, -0.152, 0.979, -0.104, -28.442, -6.531, -5.859, , , , , , , 95.394, 8.839, 10.47, 0.000, 0.000, 0.000,, 0.67694, 0.72501, 0.12625, -0.00897,,,
 11:49:58.483,d2:03:b8:43:8d:44, 2015-01-01 00:04:52.920, -0.088, 0.995, -0.146, -28.687, -3.052, -0.671, , , , , , , 95.098, 8.871, 10.432, 0.000, 0.000, 0.000,, 0.67694, 0.72501, 0.12625, -0.00897,,,
 11:49:58.483,d2:03:b8:43:8d:44, 2015-01-01 00:04:52.920, -0.123, 0.954, -0.194, -24.719, -5.737, -4.7, , , , , , , 94.823, 8.888, 10.377, 0.000, 0.000, 0.000,, 0.67694, 0.72501, 0.12625, -0.00897,,,
 11:49:58.483,d2:03:b8:43:8d:44, 2015-01-01 00:04:52.920, -0.157, 0.944, -0.269, -19.165, 2.93, -13.062, , , , , , , 94.603, 9.009, 10.382, 0.000, 0.000, 0.000,, 0.67694, 0.72501, 0.12625, -0.00897,,,
 11:49:58.484,d2:03:b8:43:8d:44, 2015-01-01 00:04:52.920, -0.207, 0.959, -0.268, -14.099, 7.324, -2.563, , , , , , , 94.444, 9.075, 10.453, 0.000, 0.000, 0.000,, 0.67694, 0.72501, 0.12625, -0.00897,,,
 11:49:58.484,d2:03:b8:43:8d:44, 2015-01-01 00:04:52.920, -0.134, 0.926, -0.304, -4.028, 4.272, 1.709, , , , , , , 94.367, 9.075, 10.508, 0.000, 0.000, 0.000,, 0.67694, 0.72501, 0.12625, -0.00897,,,
 11:49:58.484,d2:03:b8:43:8d:44, 2015-01-01 00:04:52.920, -0.043, 0.941, -0.25, 4.944, 1.587, 6.409, , , , , , , 94.378, 9.025, 10.53, 0.000, 0.000, 0.000,, 0.67694, 0.72501, 0.12625, -0.00897,,,
 11:49:58.484,d2:03:b8:43:8d:44, 2015-01-01 00:04:52.920, -0.257, 1.025, 0.081, 2.197, 11.658, -4.639, , , , , , , 94.444, 9.003, 10.585, 0.000, 0.000, 0.000,, 0.67694, 0.72501, 0.12625, -0.00897,,,
 11:49:58.484,d2:03:b8:43:8d:44, 2015-01-01 00:04:52.920, -0.252, 1.067, 0.396, -11.353, 5.554, -12.878, , , , , , , 94.406, 9.108, 10.706, 0.000, 0.000, 0.000,, 0.67694, 0.72501, 0.12625, -0.00897,,,
 11:49:58.485,d2:03:b8:43:8d:44, 2015-01-01 00:04:52.920, -0.041, 1.026, 0.15, -19.897, -12.39, -5.493, , , , , , , 94.224, 9.19, 10.673, 0.000, 0.000, 0.000,, 0.67694, 0.72501, 0.12625, -0.00897,,,
 11:49:58.485,d2:03:b8:43:8d:44, 2015-01-01 00:04:52.920, -0.067, 0.964, -0.256, -15.564, -3.601, -10.803, , , , , , , 94.032, 9.283, 10.563, 0.000, 0.000, 0.000,, 0.67694, 0.72501, 0.12625, -0.00897,,,
 11:49:58.485,d2:03:b8:43:8d:44, 2015-01-01 00:04:52.920, -0.354, 0.986, -0.133, -15.564, 12.329, -15.686, , , , , , , 93.889, 9.415, 10.657, 0.000, 0.000, 0.000,, 0.67694, 0.72501, 0.12625, -0.00897,,,
 11:49:58.485,d2:03:b8:43:8d:44, 2015-01-01 00:04:52.920, -0.368, 0.925, -0.167, -6.897, -5.371, -9.033, , , , , , , 93.779, 9.547, 10.695, 0.000, 0.000, 0.000,, 0.67694, 0.72501, 0.12625, -0.00897,,,
 11:49:58.485,d2:03:b8:43:8d:44, 2015-01-01 00:04:52.920, -0.045, 0.838, -0.397, 8.301, -27.222, 8.545, , , , , , , 93.746, 9.553, 10.541, 0.000, 0.000, 0.000,, 0.67694, 0.72501, 0.12625, -0.00897,,,
 11:49:58.501,d2:03:b8:43:8d:44, 2015-01-01 00:04:52.920, 0.12, 0.822, -0.779, 38.818, -29.358, 5.554, , , , , , , 93.955, 9.487, 10.14, 0.000, 0.000, 0.000,, 0.67725, 0.72556, 0.12149, 6E-05,,,
 11:49:58.502,d2:03:b8:43:8d:44, 2015-01-01 00:04:52.920, -0.23, 1.049, -0.18, 34.058, 15.869, -1.709, , , , , , , 94.323, 9.498, 10.206, 0.000, 0.000, 0.000,, 0.67725, 0.72556, 0.12149, 6E-05,,,
 11:49:58.502,d2:03:b8:43:8d:44, 2015-01-01 00:04:52.920, -0.302, 1.069, 0.178, 28.137, 9.705, 1.77, , , , , , , 94.669, 9.481, 10.278, 0.000, 0.000, 0.000,, 0.67725, 0.72556, 0.12149, 6E-05,,,
 11:49:58.502,d2:03:b8:43:8d:44, 2015-01-01 00:04:52.920, 0.025, 1.025, 0.208, 22.583, -16.357, 8.362, , , , , , , 94.905, 9.437, 10.239, 0.000, 0.000, 0.000,, 0.67725, 0.72556, 0.12149, 6E-05,,,
 11:49:58.667,d2:03:b8:43:8d:44, 2015-01-01 00:04:53.365, -0.337, 1.116, 0.312, -3.906, 30.64, 1.099, , , , , , , 95.01, 9.36, 10.311, 0.000, 0.000, 0.000,, 0.67725, 0.72556, 0.12149, 6E-05,,,
 11:49:58.714,d2:03:b8:43:8d:44, 2015-01-01 00:04:53.365, -0.212, 1.032, 0.465, -13.367, -7.996, -14.099, , , , , , , 94.933, 9.437, 10.437, 0.000, 0.000, 0.000,, 0.67725, 0.72556, 0.12149, 6E-05,,,
 11:49:58.714,d2:03:b8:43:8d:44, 2015-01-01 00:04:53.365, -0.087, 1.044, 0.015, -19.897, -11.78, 0.854, , , , , , , 94.735, 9.525, 10.311, 0.000, 0.000, 0.000,, 0.67725, 0.72556, 0.12149, 6E-05,,,
 11:49:58.715,d2:03:b8:43:8d:44, 2015-01-01 00:04:53.365, -0.151, 0.968, -0.163, -20.142, -2.075, -1.465, , , , , , , 94.515, 9.509, 10.245, 0.000, 0.000, 0.000,, 0.67725, 0.72556, 0.12149, 6E-05,,,
 11:49:58.731,d2:03:b8:43:8d:44, 2015-01-01 00:04:53.365, -0.192, 0.946, -0.257, -13.855, 0, -11.23, , , , , , , 94.345, 9.597, 10.245, 0.000, 0.000, 0.000,, 0.67725, 0.72556, 0.12149, 6E-05,,,
 11:49:58.731,d2:03:b8:43:8d:44, 2015-01-01 00:04:53.365, -0.183, 0.94, -0.364, -6.47, 4.944, 3.723, , , , , , , 94.246, 9.635, 10.272, 0.000, 0.000, 0.000,, 0.67725, 0.72556, 0.12149, 6E-05,,,
 11:49:58.731,d2:03:b8:43:8d:44, 2015-01-01 00:04:53.365, -0.083, 0.896, -0.404, 7.568, 4.211, 8.728, , , , , , , 94.263, 9.547, 10.327, 0.000, 0.000, 0.000,, 0.67725, 0.72556, 0.12149, 6E-05,,,
 11:49:58.731,d2:03:b8:43:8d:44, 2015-01-01 00:04:53.365, -0.109, 0.952, -0.274, 16.968, 4.15, 6.47, , , , , , , 94.411, 9.465, 10.333, 0.000, 0.000, 0.000,, 0.67725, 0.72556, 0.12149, 6E-05,,,
 11:49:58.731,d2:03:b8:43:8d:44, 2015-01-01 00:04:53.365, -0.168, 0.984, -0.091, 18.066, 8.972, 3.845, , , , , , , 94.598, 9.415, 10.404, 0.000, 0.000, 0.000,, 0.67725, 0.72556, 0.12149, 6E-05,,,
 11:49:58.731,d2:03:b8:43:8d:44, 2015-01-01 00:04:53.365, -0.231, 1.03, 0.117, 11.353, 12.878, 1.709, , , , , , , 94.763, 9.382, 10.53, 0.000, 0.000, 0.000,, 0.67725, 0.72556, 0.12149, 6E-05,,,
 11:49:58.731,d2:03:b8:43:8d:44, 2015-01-01 00:04:53.365, -0.305, 1.097, 0.455, -7.751, 13.55, 0.122, , , , , , , 94.801, 9.36, 10.673, 0.000, 0.000, 0.000,, 0.67725, 0.72556, 0.12149, 6E-05,,,
 11:49:58.732,d2:03:b8:43:8d:44, 2015-01-01 00:04:53.365, -0.074, 1.036, 0.314, -19.043, -11.841, -2.38, , , , , , , 94.647, 9.371, 10.668, 0.000, 0.000, 0.000,, 0.67725, 0.72556, 0.12149, 6E-05,,,
 11:49:58.732,d2:03:b8:43:8d:44, 2015-01-01 00:04:53.365, -0.095, 1, -0.132, -20.691, -4.822, -0.427, , , , , , , 94.427, 9.388, 10.558, 0.000, 0.000, 0.000,, 0.67725, 0.72556, 0.12149, 6E-05,,,
 11:49:58.732,d2:03:b8:43:8d:44, 2015-01-01 00:04:53.365, -0.264, 0.968, -0.199, -19.104, 7.324, -9.033, , , , , , , 94.23, 9.437, 10.591, 0.000, 0.000, 0.000,, 0.67725, 0.72556, 0.12149, 6E-05,,,
 11:49:58.732,d2:03:b8:43:8d:44, 2015-01-01 00:04:53.365, -0.192, 0.949, -0.25, -13.428, 3.845, -1.404, , , , , , , 94.076, 9.498, 10.662, 0.000, 0.000, 0.000,, 0.67725, 0.72556, 0.12149, 6E-05,,,
 11:49:58.732,d2:03:b8:43:8d:44, 2015-01-01 00:04:53.365, 0.074, 0.908, -0.417, -0.793, 0.183, 15.442, , , , , , , 94.01, 9.41, 10.651, 0.000, 0.000, 0.000,, 0.67725, 0.72556, 0.12149, 6E-05,,,
 11:49:58.732,d2:03:b8:43:8d:44, 2015-01-01 00:04:53.365, -0.187, 0.987, -0.125, 1.831, 15.32, 3.235, , , , , , , 94.043, 9.289, 10.717, 0.000, 0.000, 0.000,, 0.67725, 0.72556, 0.12149, 6E-05,,,
 11:49:58.732,d2:03:b8:43:8d:44, 2015-01-01 00:04:53.365, -0.292, 0.945, 0.011, 3.784, 5.127, -20.447, , , , , , , 94.081, 9.399, 10.86, 0.000, 0.000, 0.000,, 0.67725, 0.72556, 0.12149, 6E-05,,,
 11:49:58.733,d2:03:b8:43:8d:44, 2015-01-01 00:04:53.365, -0.069, 0.983, -0.134, 7.019, 0.488, -6.226, , , , , , , 94.147, 9.553, 10.876, 0.000, 0.000, 0.000,, 0.67725, 0.72556, 0.12149, 6E-05,,,
 11:49:58.733,d2:03:b8:43:8d:44, 2015-01-01 00:04:53.365, -0.289, 1.092, 0.215, -5.737, 12.573, 7.507, , , , , , , 94.169, 9.503, 10.948, 0.000, 0.000, 0.000,, 0.67725, 0.72556, 0.12149, 6E-05,,,
 11:49:58.749,d2:03:b8:43:8d:44, 2015-01-01 00:04:53.365, -0.192, 0.987, 0.212, -11.292, -8.545, -20.142, , , , , , , 94.07, 9.575, 10.986, 0.000, 0.000, 0.000,, 0.67725, 0.72556, 0.12149, 6E-05,,,
 11:49:58.749,d2:03:b8:43:8d:44, 2015-01-01 00:04:53.365, -0.085, 1.027, -0.033, -13.55, -11.292, -6.653, , , , , , , 93.928, 9.728, 10.871, 0.000, 0.000, 0.000,, 0.67725, 0.72556, 0.12149, 6E-05,,,
 11:49:58.750,d2:03:b8:43:8d:44, 2015-01-01 00:04:53.365, -0.176, 0.994, -0.109, -15.198, 1.038, -6.531, , , , , , , 93.768, 9.778, 10.833, 0.000, 0.000, 0.000,, 0.67725, 0.72556, 0.12149, 6E-05,,,
 11:49:58.750,d2:03:b8:43:8d:44, 2015-01-01 00:04:53.365, -0.207, 0.97, -0.07, -13.794, 0.427, -12.817, , , , , , , 93.625, 9.888, 10.854, 0.000, 0.000, 0.000,, 0.67725, 0.72556, 0.12149, 6E-05,,,
 11:49:58.917,d2:03:b8:43:8d:44, 2015-01-01 00:04:53.365, -0.14, 0.985, -0.077, -12.024, -1.77, -9.094, , , , , , , 93.499, 9.998, 10.849, 0.000, 0.000, 0.000,, 0.67725, 0.72556, 0.12149, 6E-05,,,
 11:49:58.984,d2:03:b8:43:8d:44, 2015-01-01 00:04:53.365, -0.185, 0.988, -0.048, -11.78, -0.366, -8.972, , , , , , , 93.378, 10.08, 10.838, 0.000, 0.000, 0.000,, 0.67725, 0.72556, 0.12149, 6E-05,,,
 11:49:58.984,d2:03:b8:43:8d:44, 2015-01-01 00:04:53.785, -0.212, 0.962, -0.034, -10.559, -3.723, -16.907, , , , , , , 93.263, 10.223, 10.833, 0.000, 0.000, 0.000,, 0.6842, 0.71692, 0.13333, -0.00482,,,
 11:49:58.984,d2:03:b8:43:8d:44, 2015-01-01 00:04:53.785, -0.275, 0.934, -0.194, -5.066, -6.775, -12.39, , , , , , , 93.17, 10.377, 10.778, 0.000, 0.000, 0.000,, 0.6842, 0.71692, 0.13333, -0.00482,,,
 11:49:59.000,d2:03:b8:43:8d:44, 2015-01-01 00:04:53.785, -0.028, 0.773, -0.611, 17.517, -20.874, -3.235, , , , , , , 93.197, 10.453, 10.646, 0.000, 0.000, 0.000,, 0.6842, 0.71692, 0.13333, -0.00482,,,
 11:49:59.000,d2:03:b8:43:8d:44, 2015-01-01 00:04:53.785, 0.106, 0.785, -0.802, 44.983, -8.85, -0.305, , , , , , , 93.505, 10.475, 10.448, 0.000, 0.000, 0.000,, 0.6842, 0.71692, 0.13333, -0.00482,,,
 11:49:59.000,d2:03:b8:43:8d:44, 2015-01-01 00:04:53.785, -0.483, 1.114, -0.15, 44.983, 31.616, -11.963, , , , , , , 94.021, 10.514, 10.552, 0.000, 0.000, 0.000,, 0.6842, 0.71692, 0.13333, -0.00482,,,
 11:49:59.000,d2:03:b8:43:8d:44, 2015-01-01 00:04:53.785, -0.281, 1.161, 0.58, 24.109, 6.104, 3.845, , , , , , , 94.384, 10.569, 10.838, 0.000, 0.000, 0.000,, 0.6842, 0.71692, 0.13333, -0.00482,,,
 11:49:59.001,d2:03:b8:43:8d:44, 2015-01-01 00:04:53.785, -0.048, 1.103, 0.527, 1.587, -3.906, 13.611, , , , , , , 94.493, 10.448, 10.827, 0.000, 0.000, 0.000,, 0.6842, 0.71692, 0.13333, -0.00482,,,
 11:49:59.001,d2:03:b8:43:8d:44, 2015-01-01 00:04:53.785, -0.201, 1.025, 0.302, -15.137, 1.892, -18.616, , , , , , , 94.4, 10.47, 10.816, 0.000, 0.000, 0.000,, 0.6842, 0.71692, 0.13333, -0.00482,,,
 11:49:59.001,d2:03:b8:43:8d:44, 2015-01-01 00:04:53.785, -0.283, 0.993, -0.074, -14.893, 0.244, -28.015, , , , , , , 94.252, 10.761, 10.838, 0.000, 0.000, 0.000,, 0.6842, 0.71692, 0.13333, -0.00482,,,
 11:49:59.001,d2:03:b8:43:8d:44, 2015-01-01 00:04:53.785, -0.191, 1.006, -0.099, -15.991, 0.549, -2.93, , , , , , , 94.098, 10.887, 10.86, 0.000, 0.000, 0.000,, 0.6842, 0.71692, 0.13333, -0.00482,,,
 11:49:59.002,d2:03:b8:43:8d:44, 2015-01-01 00:04:53.785, -0.22, 0.99, -0.071, -16.052, 1.221, 3.906, , , , , , , 93.939, 10.86, 10.871, 0.000, 0.000, 0.000,, 0.6842, 0.71692, 0.13333, -0.00482,,,
 11:49:59.002,d2:03:b8:43:8d:44, 2015-01-01 00:04:53.785, -0.153, 0.968, -0.057, -14.038, -4.089, -6.714, , , , , , , 93.779, 10.876, 10.865, 0.000, 0.000, 0.000,, 0.6842, 0.71692, 0.13333, -0.00482,,,
 11:49:59.002,d2:03:b8:43:8d:44, 2015-01-01 00:04:53.785, -0.149, 0.985, -0.118, -12.451, -3.723, -1.892, , , , , , , 93.642, 10.937, 10.805, 0.000, 0.000, 0.000,, 0.6842, 0.71692, 0.13333, -0.00482,,,
 11:49:59.002,d2:03:b8:43:8d:44, 2015-01-01 00:04:53.785, -0.245, 0.962, -0.054, -11.353, -0.366, -10.071, , , , , , , 93.521, 10.981, 10.8, 0.000, 0.000, 0.000,, 0.6842, 0.71692, 0.13333, -0.00482,,,
 11:49:59.002,d2:03:b8:43:8d:44, 2015-01-01 00:04:53.785, -0.202, 0.976, -0.049, -10.01, -4.211, -13, , , , , , , 93.411, 11.129, 10.783, 0.000, 0.000, 0.000,, 0.6842, 0.71692, 0.13333, -0.00482,,,
 11:49:59.003,d2:03:b8:43:8d:44, 2015-01-01 00:04:53.785, -0.167, 0.974, -0.104, -9.705, -1.282, 0.854, , , , , , , 93.301, 11.173, 10.756, 0.000, 0.000, 0.000,, 0.6842, 0.71692, 0.13333, -0.00482,,,
 11:49:59.003,d2:03:b8:43:8d:44, 2015-01-01 00:04:53.785, -0.212, 0.945, -0.09, -6.348, 0, -3.662, , , , , , , 93.219, 11.184, 10.75, 0.000, 0.000, 0.000,, 0.6842, 0.71692, 0.13333, -0.00482,,,
 11:49:59.003,d2:03:b8:43:8d:44, 2015-01-01 00:04:53.785, -0.205, 0.957, -0.051, -3.052, -2.869, -7.935, , , , , , , 93.17, 11.255, 10.745, 0.000, 0.000, 0.000,, 0.6842, 0.71692, 0.13333, -0.00482,,,
 11:49:59.003,d2:03:b8:43:8d:44, 2015-01-01 00:04:53.785, -0.236, 0.981, -0.039, -1.465, -2.197, -2.991, , , , , , , 93.148, 11.31, 10.706, 0.000, 0.000, 0.000,, 0.6842, 0.71692, 0.13333, -0.00482,,,
 11:49:59.004,d2:03:b8:43:8d:44, 2015-01-01 00:04:53.785, -0.158, 0.981, -0.004, -1.099, -5.737, -1.892, , , , , , , 93.126, 11.332, 10.673, 0.000, 0.000, 0.000,, 0.6842, 0.71692, 0.13333, -0.00482,,,
 11:49:59.004,d2:03:b8:43:8d:44, 2015-01-01 00:04:53.785, -0.151, 0.99, -0.076, -1.343, -0.122, 1.099, , , , , , , 93.104, 11.338, 10.635, 0.000, 0.000, 0.000,, 0.6842, 0.71692, 0.13333, -0.00482,,,
 11:49:59.004,d2:03:b8:43:8d:44, 2015-01-01 00:04:53.785, -0.197, 0.964, -0.067, 0.366, 1.77, -4.395, , , , , , , 93.104, 11.349, 10.651, 0.000, 0.000, 0.000,, 0.6842, 0.71692, 0.13333, -0.00482,,,
 11:49:59.138,d2:03:b8:43:8d:44, 2015-01-01 00:04:53.785, -0.212, 0.959, -0.065, 2.563, -1.282, -13.611, , , , , , , 93.12, 11.448, 10.657, 0.000, 0.000, 0.000,, 0.6842, 0.71692, 0.13333, -0.00482,,,
 11:49:59.180,d2:03:b8:43:8d:44, 2015-01-01 00:04:53.785, -0.152, 0.903, -0.315, 12.39, -4.639, -5.981, , , , , , , 93.186, 11.552, 10.624, 0.000, 0.000, 0.000,, 0.6842, 0.71692, 0.13333, -0.00482,,,
 11:49:59.180,d2:03:b8:43:8d:44, 2015-01-01 00:04:53.785, -0.055, 0.832, -0.527, 30.884, -3.54, -1.038, , , , , , , 93.4, 11.569, 10.563, 0.000, 0.000, 0.000,, 0.6842, 0.71692, 0.13333, -0.00482,,,
 11:49:59.180,d2:03:b8:43:8d:44, 2015-01-01 00:04:53.785, -0.33, 1.001, -0.191, 31.982, 25.391, 2.625, , , , , , , 93.757, 11.558, 10.701, 0.000, 0.000, 0.000,, 0.6842, 0.71692, 0.13333, -0.00482,,,
 11:49:59.196,d2:03:b8:43:8d:44, 2015-01-01 00:04:53.785, -0.52, 1.152, 0.552, 11.719, 19.226, -5.371, , , , , , , 94.026, 11.536, 10.981, 0.000, 0.000, 0.000,, 0.6842, 0.71692, 0.13333, -0.00482,,,
 11:49:59.196,d2:03:b8:43:8d:44, 2015-01-01 00:04:53.785, -0.025, 1.079, 0.411, -0.916, -21.606, 6.714, , , , , , , 94.054, 11.58, 10.915, 0.000, 0.000, 0.000,, 0.6842, 0.71692, 0.13333, -0.00482,,,
 11:49:59.196,d2:03:b8:43:8d:44, 2015-01-01 00:04:53.785, -0.098, 1.011, -0.1, -8.179, -2.869, 16.541, , , , , , , 93.966, 11.404, 10.767, 0.000, 0.000, 0.000,, 0.6842, 0.71692, 0.13333, -0.00482,,,
 11:49:59.197,d2:03:b8:43:8d:44, 2015-01-01 00:04:53.785, -0.258, 0.934, -0.134, -5.005, 3.296, -16.235, , , , , , , 93.9, 11.437, 10.778, 0.000, 0.000, 0.000,, 0.6842, 0.71692, 0.13333, -0.00482,,,
 11:49:59.197,d2:03:b8:43:8d:44, 2015-01-01 00:04:53.785, -0.304, 1.002, -0.081, -5.676, 6.47, -2.502, , , , , , , 93.867, 11.552, 10.844, 0.000, 0.000, 0.000,, 0.6842, 0.71692, 0.13333, -0.00482,,,
 11:49:59.197,d2:03:b8:43:8d:44, 2015-01-01 00:04:53.785, -0.177, 0.986, 0.01, -5.676, -4.395, 8.911, , , , , , , 93.807, 11.497, 10.849, 0.000, 0.000, 0.000,, 0.6842, 0.71692, 0.13333, -0.00482,,,
 11:49:59.198,d2:03:b8:43:8d:44, 2015-01-01 00:04:53.785, -0.184, 0.973, -0.041, -5.127, -7.141, 4.395, , , , , , , 93.735, 11.426, 10.772, 0.000, 0.000, 0.000,, 0.6842, 0.71692, 0.13333, -0.00482,,,
 11:49:59.198,d2:03:b8:43:8d:44, 2015-01-01 00:04:53.785, -0.252, 0.974, -0.052, -4.944, -6.653, -3.052, , , , , , , 93.669, 11.431, 10.706, 0.000, 0.000, 0.000,, 0.6842, 0.71692, 0.13333, -0.00482,,,
 11:49:59.198,d2:03:b8:43:8d:44, 2015-01-01 00:04:53.785, -0.213, 0.989, -0.057, -4.944, -9.644, 0.977, , , , , , , 93.604, 11.459, 10.624, 0.000, 0.000, 0.000,, 0.6842, 0.71692, 0.13333, -0.00482,,,
 11:49:59.198,d2:03:b8:43:8d:44, 2015-01-01 00:04:53.785, -0.133, 0.992, -0.065, -5.737, -10.01, 8.179, , , , , , , 93.527, 11.409, 10.508, 0.000, 0.000, 0.000,, 0.6842, 0.71692, 0.13333, -0.00482,,,
 11:49:59.198,d2:03:b8:43:8d:44, 2015-01-01 00:04:53.785, -0.161, 0.976, -0.085, -5.981, -4.333, 5.859, , , , , , , 93.45, 11.338, 10.432, 0.000, 0.000, 0.000,, 0.6842, 0.71692, 0.13333, -0.00482,,,
 11:49:59.198,d2:03:b8:43:8d:44, 2015-01-01 00:04:53.785, -0.236, 0.969, -0.055, -5.493, -0.427, -0.916, , , , , , , 93.389, 11.321, 10.415, 0.000, 0.000, 0.000,, 0.6842, 0.71692, 0.13333, -0.00482,,,
 11:49:59.198,d2:03:b8:43:8d:44, 2015-01-01 00:04:53.785, -0.212, 0.979, -0.032, -4.7, -3.784, 0.427, , , , , , , 93.334, 11.332, 10.388, 0.000, 0.000, 0.000,, 0.6842, 0.71692, 0.13333, -0.00482,,,
 11:49:59.198,d2:03:b8:43:8d:44, 2015-01-01 00:04:53.785, -0.181, 0.982, -0.043, -4.333, -5.371, 4.089, , , , , , , 93.274, 11.305, 10.338, 0.000, 0.000, 0.000,, 0.6842, 0.71692, 0.13333, -0.00482,,,
 11:49:59.198,d2:03:b8:43:8d:44, 2015-01-01 00:04:53.785, -0.143, 0.981, -0.059, -3.479, -4.211, 1.587, , , , , , , 93.224, 11.283, 10.283, 0.000, 0.000, 0.000,, 0.6842, 0.71692, 0.13333, -0.00482,,,
 11:49:59.198,d2:03:b8:43:8d:44, 2015-01-01 00:04:53.785, -0.146, 0.981, -0.105, -3.113, 2.319, 4.15, , , , , , , 93.192, 11.255, 10.267, 0.000, 0.000, 0.000,, 0.6842, 0.71692, 0.13333, -0.00482,,,
 11:49:59.231,d2:03:b8:43:8d:44, 2015-01-01 00:04:53.785, -0.198, 0.973, -0.066, -3.113, 8.24, 2.319, , , , , , , 93.17, 11.212, 10.327, 0.000, 0.000, 0.000,, 0.6842, 0.71692, 0.13333, -0.00482,,,
 11:49:59.231,d2:03:b8:43:8d:44, 2015-01-01 00:04:53.785, -0.24, 0.968, -0.043, -1.526, 7.629, 0.122, , , , , , , 93.159, 11.206, 10.41, 0.000, 0.000, 0.000,, 0.6842, 0.71692, 0.13333, -0.00482,,,
 11:49:59.232,d2:03:b8:43:8d:44, 2015-01-01 00:04:53.785, -0.263, 0.968, -0.01, -0.122, 3.357, 0.183, , , , , , , 93.164, 11.195, 10.464, 0.000, 0.000, 0.000,, 0.6842, 0.71692, 0.13333, -0.00482,,,
 11:49:59.232,d2:03:b8:43:8d:44, 2015-01-01 00:04:53.785, -0.195, 0.972, -0.017, 1.709, -4.089, 1.465, , , , , , , 93.17, 11.195, 10.453, 0.000, 0.000, 0.000,, 0.6842, 0.71692, 0.13333, -0.00482,,,
 11:49:59.366,d2:03:b8:43:8d:44, 2015-01-01 00:04:53.785, -0.138, 0.983, -0.048, 2.319, -5.737, 5.737, , , , , , , 93.181, 11.151, 10.388, 0.000, 0.000, 0.000,, 0.6842, 0.71692, 0.13333, -0.00482,,,
 11:49:59.432,d2:03:b8:43:8d:44, 2015-01-01 00:04:53.785, -0.176, 0.975, -0.063, 2.502, -1.038, 1.831, , , , , , , 93.197, 11.113, 10.355, 0.000, 0.000, 0.000,, 0.68753, 0.71417, 0.13089, -0.00549,,,
 11:49:59.432,d2:03:b8:43:8d:44, 2015-01-01 00:04:54.200, -0.208, 0.974, -0.053, 3.601, -0.427, -4.639, , , , , , , 93.224, 11.135, 10.349, 0.000, 0.000, 0.000,, 0.68753, 0.71417, 0.13089, -0.00549,,,
 11:49:59.432,d2:03:b8:43:8d:44, 2015-01-01 00:04:54.200, -0.213, 0.989, -0.072, 3.479, 0.061, -0.916, , , , , , , 93.257, 11.173, 10.344, 0.000, 0.000, 0.000,, 0.68753, 0.71417, 0.13089, -0.00549,,,
 11:49:59.448,d2:03:b8:43:8d:44, 2015-01-01 00:04:54.200, -0.177, 0.988, -0.05, 2.441, -0.916, 2.747, , , , , , , 93.285, 11.157, 10.344, 0.000, 0.000, 0.000,, 0.68753, 0.71417, 0.13089, -0.00549,,,
 11:49:59.448,d2:03:b8:43:8d:44, 2015-01-01 00:04:54.200, -0.191, 0.988, -0.07, 1.404, 0.427, 2.441, , , , , , , 93.301, 11.129, 10.333, 0.000, 0.000, 0.000,, 0.68753, 0.71417, 0.13089, -0.00549,,,
 11:49:59.448,d2:03:b8:43:8d:44, 2015-01-01 00:04:54.200, -0.219, 0.992, -0.058, -0.488, 1.77, 0.916, , , , , , , 93.307, 11.113, 10.349, 0.000, 0.000, 0.000,, 0.68753, 0.71417, 0.13089, -0.00549,,,
 11:49:59.450,d2:03:b8:43:8d:44, 2015-01-01 00:04:54.200, -0.175, 0.998, -0.068, -2.075, -0.122, 4.272, , , , , , , 93.296, 11.091, 10.349, 0.000, 0.000, 0.000,, 0.68753, 0.71417, 0.13089, -0.00549,,,
 11:49:59.450,d2:03:b8:43:8d:44, 2015-01-01 00:04:54.200, -0.145, 1.004, -0.095, -4.395, 3.174, 7.812, , , , , , , 93.263, 11.025, 10.36, 0.000, 0.000, 0.000,, 0.68753, 0.71417, 0.13089, -0.00549,,,
 11:49:59.450,d2:03:b8:43:8d:44, 2015-01-01 00:04:54.200, -0.115, 0.992, -0.093, -5.859, 8.057, 10.681, , , , , , , 93.219, 10.926, 10.41, 0.000, 0.000, 0.000,, 0.68753, 0.71417, 0.13089, -0.00549,,,
 11:49:59.450,d2:03:b8:43:8d:44, 2015-01-01 00:04:54.200, -0.257, 0.977, -0.143, -5.493, 13.977, 7.629, , , , , , , 93.175, 10.827, 10.519, 0.000, 0.000, 0.000,, 0.68753, 0.71417, 0.13089, -0.00549,,,
 11:49:59.450,d2:03:b8:43:8d:44, 2015-01-01 00:04:54.200, -0.173, 0.865, -0.433, 5.432, 14.16, 13.184, , , , , , , 93.197, 10.717, 10.673, 0.000, 0.000, 0.000,, 0.68753, 0.71417, 0.13089, -0.00549,,,
 11:49:59.450,d2:03:b8:43:8d:44, 2015-01-01 00:04:54.200, 0.119, 0.793, -0.732, 32.532, 9.888, 16.357, , , , , , , 93.417, 10.563, 10.734, 0.000, 0.000, 0.000,, 0.68753, 0.71417, 0.13089, -0.00549,,,
 11:49:59.450,d2:03:b8:43:8d:44, 2015-01-01 00:04:54.200, -0.294, 0.975, -0.6, 48.34, 38.513, 15.015, , , , , , , 93.895, 10.393, 10.953, 0.000, 0.000, 0.000,, 0.68753, 0.71417, 0.13089, -0.00549,,,
 11:49:59.450,d2:03:b8:43:8d:44, 2015-01-01 00:04:54.200, -0.289, 1.064, 0.152, 50.72, 21.24, 11.292, , , , , , , 94.466, 10.25, 11.245, 0.000, 0.000, 0.000,, 0.68753, 0.71417, 0.13089, -0.00549,,,
 11:49:59.452,d2:03:b8:43:8d:44, 2015-01-01 00:04:54.200, -0.417, 1.187, 0.797, 20.264, 16.968, 17.09, , , , , , , 94.856, 10.074, 11.437, 0.000, 0.000, 0.000,, 0.68753, 0.71417, 0.13089, -0.00549,,,
 11:49:59.452,d2:03:b8:43:8d:44, 2015-01-01 00:04:54.200, 0.089, 0.974, 0.666, -3.296, -17.761, 8.362, , , , , , , 94.894, 9.97, 11.431, 0.000, 0.000, 0.000,, 0.68753, 0.71417, 0.13089, -0.00549,,,
 11:49:59.452,d2:03:b8:43:8d:44, 2015-01-01 00:04:54.200, -0.156, 0.938, -0.14, -4.456, -7.324, 0.244, , , , , , , 94.823, 9.915, 11.234, 0.000, 0.000, 0.000,, 0.68753, 0.71417, 0.13089, -0.00549,,,
 11:49:59.452,d2:03:b8:43:8d:44, 2015-01-01 00:04:54.200, -0.385, 1.018, -0.109, -3.296, -0.244, -31.372, , , , , , , 94.785, 10.096, 11.25, 0.000, 0.000, 0.000,, 0.68753, 0.71417, 0.13089, -0.00549,,,
 11:49:59.452,d2:03:b8:43:8d:44, 2015-01-01 00:04:54.200, -0.14, 1.072, -0.082, -5.249, -4.517, 10.559, , , , , , , 94.735, 10.234, 11.234, 0.000, 0.000, 0.000,, 0.68753, 0.71417, 0.13089, -0.00549,,,
 11:49:59.468,d2:03:b8:43:8d:44, 2015-01-01 00:04:54.200, -0.122, 0.98, -0.074, -5.981, -3.601, 19.958, , , , , , , 94.664, 10.009, 11.168, 0.000, 0.000, 0.000,, 0.68753, 0.71417, 0.13089, -0.00549,,,
 11:49:59.468,d2:03:b8:43:8d:44, 2015-01-01 00:04:54.200, -0.239, 0.949, -0.059, -3.479, -4.395, -10.62, , , , , , , 94.609, 9.998, 11.135, 0.000, 0.000, 0.000,, 0.68753, 0.71417, 0.13089, -0.00549,,,
 11:49:59.468,d2:03:b8:43:8d:44, 2015-01-01 00:04:54.200, -0.219, 1.001, -0.078, -3.906, -6.042, 1.709, , , , , , , 94.565, 10.063, 11.08, 0.000, 0.000, 0.000,, 0.68753, 0.71417, 0.13089, -0.00549,,,
 11:49:59.468,d2:03:b8:43:8d:44, 2015-01-01 00:04:54.200, -0.131, 0.991, -0.07, -4.639, -7.507, 14.465, , , , , , , 94.504, 9.965, 11.003, 0.000, 0.000, 0.000,, 0.68753, 0.71417, 0.13089, -0.00549,,,
 11:49:59.620,d2:03:b8:43:8d:44, 2015-01-01 00:04:54.200, -0.164, 0.97, -0.087, -3.54, -4.761, 10.315, , , , , , , 94.449, 9.838, 10.926, 0.000, 0.000, 0.000,, 0.68753, 0.71417, 0.13089, -0.00549,,,
 11:49:59.677,d2:03:b8:43:8d:44, 2015-01-01 00:04:54.200, -0.173, 0.971, -0.072, -1.892, -4.089, 4.395, , , , , , , 94.417, 9.778, 10.876, 0.000, 0.000, 0.000,, 0.68753, 0.71417, 0.13089, -0.00549,,,
 11:49:59.677,d2:03:b8:43:8d:44, 2015-01-01 00:04:54.200, -0.175, 0.983, -0.071, -1.038, -3.479, 5.859, , , , , , , 94.389, 9.728, 10.833, 0.000, 0.000, 0.000,, 0.68753, 0.71417, 0.13089, -0.00549,,,
 11:49:59.677,d2:03:b8:43:8d:44, 2015-01-01 00:04:54.200, -0.197, 0.994, -0.066, -0.732, -4.211, 4.883, , , , , , , 94.378, 9.679, 10.789, 0.000, 0.000, 0.000,, 0.68753, 0.71417, 0.13089, -0.00549,,,
 11:49:59.693,d2:03:b8:43:8d:44, 2015-01-01 00:04:54.200, -0.148, 0.99, -0.068, -1.404, -7.263, 6.409, , , , , , , 94.351, 9.63, 10.728, 0.000, 0.000, 0.000,, 0.68753, 0.71417, 0.13089, -0.00549,,,
 11:49:59.693,d2:03:b8:43:8d:44, 2015-01-01 00:04:54.200, -0.122, 0.99, -0.099, -2.808, -4.639, 9.705, , , , , , , 94.318, 9.547, 10.651, 0.000, 0.000, 0.000,, 0.68753, 0.71417, 0.13089, -0.00549,,,
 11:49:59.693,d2:03:b8:43:8d:44, 2015-01-01 00:04:54.200, -0.143, 0.981, -0.093, -4.028, -1.526, 5.432, , , , , , , 94.274, 9.476, 10.618, 0.000, 0.000, 0.000,, 0.68753, 0.71417, 0.13089, -0.00549,,,
 11:49:59.694,d2:03:b8:43:8d:44, 2015-01-01 00:04:54.200, -0.167, 0.975, -0.078, -3.906, -0.183, 0.366, , , , , , , 94.235, 9.454, 10.607, 0.000, 0.000, 0.000,, 0.68753, 0.71417, 0.13089, -0.00549,,,
 11:49:59.694,d2:03:b8:43:8d:44, 2015-01-01 00:04:54.200, -0.173, 0.985, -0.073, -4.089, 0.305, 0.916, , , , , , , 94.191, 9.448, 10.607, 0.000, 0.000, 0.000,, 0.68753, 0.71417, 0.13089, -0.00549,,,
 11:49:59.694,d2:03:b8:43:8d:44, 2015-01-01 00:04:54.200, -0.167, 0.981, -0.067, -3.54, -0.183, 2.991, , , , , , , 94.153, 9.426, 10.607, 0.000, 0.000, 0.000,, 0.68753, 0.71417, 0.13089, -0.00549,,,
 11:49:59.694,d2:03:b8:43:8d:44, 2015-01-01 00:04:54.200, -0.167, 0.982, -0.066, -2.808, -0.61, 2.136, , , , , , , 94.12, 9.399, 10.602, 0.000, 0.000, 0.000,, 0.68753, 0.71417, 0.13089, -0.00549,,,
 11:49:59.695,d2:03:b8:43:8d:44, 2015-01-01 00:04:54.200, -0.167, 0.98, -0.062, -1.77, -1.587, 1.16, , , , , , , 94.092, 9.388, 10.585, 0.000, 0.000, 0.000,, 0.68753, 0.71417, 0.13089, -0.00549,,,
 11:49:59.695,d2:03:b8:43:8d:44, 2015-01-01 00:04:54.200, -0.17, 0.986, -0.066, -1.343, -1.343, 1.526, , , , , , , 94.076, 9.377, 10.563, 0.000, 0.000, 0.000,, 0.68753, 0.71417, 0.13089, -0.00549,,,
 11:49:59.695,d2:03:b8:43:8d:44, 2015-01-01 00:04:54.200, -0.175, 0.989, -0.066, -1.221, -1.221, 2.808, , , , , , , 94.059, 9.355, 10.547, 0.000, 0.000, 0.000,, 0.68753, 0.71417, 0.13089, -0.00549,,,
 11:49:59.695,d2:03:b8:43:8d:44, 2015-01-01 00:04:54.200, -0.161, 0.99, -0.067, -1.343, -0.977, 5.493, , , , , , , 94.043, 9.316, 10.53, 0.000, 0.000, 0.000,, 0.68753, 0.71417, 0.13089, -0.00549,,,
 11:49:59.695,d2:03:b8:43:8d:44, 2015-01-01 00:04:54.200, -0.156, 0.986, -0.066, -1.465, -0.488, 6.775, , , , , , , 94.026, 9.25, 10.519, 0.000, 0.000, 0.000,, 0.68753, 0.71417, 0.13089, -0.00549,,,
 11:49:59.696,d2:03:b8:43:8d:44, 2015-01-01 00:04:54.200, -0.15, 0.984, -0.067, -1.221, -0.183, 5.981, , , , , , , 94.01, 9.185, 10.508, 0.000, 0.000, 0.000,, 0.68753, 0.71417, 0.13089, -0.00549,,,
 11:49:59.696,d2:03:b8:43:8d:44, 2015-01-01 00:04:54.200, -0.148, 0.985, -0.068, -1.038, 0.061, 4.761, , , , , , , 93.994, 9.13, 10.503, 0.000, 0.000, 0.000,, 0.68753, 0.71417, 0.13089, -0.00549,,,
 11:49:59.696,d2:03:b8:43:8d:44, 2015-01-01 00:04:54.200, -0.161, 0.984, -0.069, -0.793, 0.793, 3.54, , , , , , , 93.983, 9.091, 10.503, 0.000, 0.000, 0.000,, 0.68753, 0.71417, 0.13089, -0.00549,,,
 11:49:59.696,d2:03:b8:43:8d:44, 2015-01-01 00:04:54.200, -0.175, 0.988, -0.072, -0.977, 0.977, 3.174, , , , , , , 93.977, 9.058, 10.514, 0.000, 0.000, 0.000,, 0.68753, 0.71417, 0.13089, -0.00549,,,
 11:49:59.729,d2:03:b8:43:8d:44, 2015-01-01 00:04:54.200, -0.169, 0.993, -0.077, -1.709, 0.366, 5.676, , , , , , , 93.961, 9.014, 10.514, 0.000, 0.000, 0.000,, 0.68753, 0.71417, 0.13089, -0.00549,,,
 11:49:59.729,d2:03:b8:43:8d:44, 2015-01-01 00:04:54.200, -0.135, 0.991, -0.076, -2.747, 1.038, 9.521, , , , , , , 93.939, 8.937, 10.514, 0.000, 0.000, 0.000,, 0.68753, 0.71417, 0.13089, -0.00549,,,
 11:49:59.729,d2:03:b8:43:8d:44, 2015-01-01 00:04:54.200, -0.123, 0.988, -0.07, -3.418, 1.77, 9.583, , , , , , , 93.906, 8.839, 10.525, 0.000, 0.000, 0.000,, 0.68753, 0.71417, 0.13089, -0.00549,,,
 11:49:59.730,d2:03:b8:43:8d:44, 2015-01-01 00:04:54.200, -0.149, 0.975, -0.062, -2.869, 2.808, 4.578, , , , , , , 93.878, 8.767, 10.541, 0.000, 0.000, 0.000,, 0.68753, 0.71417, 0.13089, -0.00549,,,
 11:49:59.901,d2:03:b8:43:8d:44, 2015-01-01 00:04:54.585, -0.15, 0.977, -0.055, -1.221, 1.526, -0.366, , , , , , , 93.856, 8.751, 10.563, 0.000, 0.000, 0.000,, 0.68314, 0.72043, 0.11899, 0.0072,,,
 11:49:59.958,d2:03:b8:43:8d:44, 2015-01-01 00:04:54.585, -0.139, 0.986, -0.059, -0.366, 0.61, 0, , , , , , , 93.851, 8.751, 10.574, 0.000, 0.000, 0.000,, 0.68314, 0.72043, 0.11899, 0.0072,,,
 11:49:59.958,d2:03:b8:43:8d:44, 2015-01-01 00:04:54.585, -0.135, 0.981, -0.061, 0.183, 0.061, -2.38, , , , , , , 93.851, 8.762, 10.574, 0.000, 0.000, 0.000,, 0.68314, 0.72043, 0.11899, 0.0072,,,
 11:49:59.958,d2:03:b8:43:8d:44, 2015-01-01 00:04:54.585, -0.146, 0.983, -0.062, 0.488, 0.61, -5.31, , , , , , , 93.856, 8.806, 10.58, 0.000, 0.000, 0.000,, 0.68314, 0.72043, 0.11899, 0.0072,,,
 11:49:59.959,d2:03:b8:43:8d:44, 2015-01-01 00:04:54.585, -0.16, 0.985, -0.062, 0.671, 0.793, -7.507, , , , , , , 93.862, 8.871, 10.591, 0.000, 0.000, 0.000,, 0.68314, 0.72043, 0.11899, 0.0072,,,
 11:49:59.959,d2:03:b8:43:8d:44, 2015-01-01 00:04:54.585, -0.167, 0.986, -0.063, 0.977, 0.916, -7.263, , , , , , , 93.873, 8.948, 10.602, 0.000, 0.000, 0.000,, 0.68314, 0.72043, 0.11899, 0.0072,,,
 11:49:59.959,d2:03:b8:43:8d:44, 2015-01-01 00:04:54.585, -0.174, 0.988, -0.064, 0.916, 0.854, -5.615, , , , , , , 93.884, 9.009, 10.618, 0.000, 0.000, 0.000,, 0.68314, 0.72043, 0.11899, 0.0072,,,
 11:49:59.959,d2:03:b8:43:8d:44, 2015-01-01 00:04:54.585, -0.168, 0.989, -0.066, 0.793, 0.61, -3.235, , , , , , , 93.895, 9.053, 10.629, 0.000, 0.000, 0.000,, 0.68314, 0.72043, 0.11899, 0.0072,,,
 11:49:59.976,d2:03:b8:43:8d:44, 2015-01-01 00:04:54.585, -0.157, 0.989, -0.067, 0.549, 0.305, -1.282, , , , , , , 93.9, 9.075, 10.635, 0.000, 0.000, 0.000,, 0.68314, 0.72043, 0.11899, 0.0072,,,
 11:49:59.976,d2:03:b8:43:8d:44, 2015-01-01 00:04:54.585, -0.148, 0.985, -0.065, 0.671, 0.366, -0.732, , , , , , , 93.906, 9.086, 10.635, 0.000, 0.000, 0.000,, 0.68314, 0.72043, 0.11899, 0.0072,,,
 11:49:59.976,d2:03:b8:43:8d:44, 2015-01-01 00:04:54.585, -0.149, 0.983, -0.064, 1.221, 0.61, -2.38, , , , , , , 93.917, 9.097, 10.64, 0.000, 0.000, 0.000,, 0.68314, 0.72043, 0.11899, 0.0072,,,
 11:49:59.976,d2:03:b8:43:8d:44, 2015-01-01 00:04:54.585, -0.163, 0.987, -0.069, 1.343, 1.221, -3.601, , , , , , , 93.928, 9.13, 10.651, 0.000, 0.000, 0.000,, 0.68314, 0.72043, 0.11899, 0.0072,,,
 11:49:59.976,d2:03:b8:43:8d:44, 2015-01-01 00:04:54.585, -0.173, 0.988, -0.071, 1.038, 1.587, -3.418, , , , , , , 93.944, 9.168, 10.668, 0.000, 0.000, 0.000,, 0.68314, 0.72043, 0.11899, 0.0072,,,
 11:49:59.976,d2:03:b8:43:8d:44, 2015-01-01 00:04:54.585, -0.164, 0.986, -0.07, 0.61, 0.61, -1.831, , , , , , , 93.955, 9.196, 10.679, 0.000, 0.000, 0.000,, 0.68314, 0.72043, 0.11899, 0.0072,,,
 11:49:59.977,d2:03:b8:43:8d:44, 2015-01-01 00:04:54.585, -0.161, 0.984, -0.068, 0.488, 0.244, -0.854, , , , , , , 93.955, 9.201, 10.684, 0.000, 0.000, 0.000,, 0.68314, 0.72043, 0.11899, 0.0072,,,
 11:49:59.977,d2:03:b8:43:8d:44, 2015-01-01 00:04:54.585, -0.166, 0.984, -0.067, 0.671, 0.061, -1.77, , , , , , , 93.966, 9.218, 10.684, 0.000, 0.000, 0.000,, 0.68314, 0.72043, 0.11899, 0.0072,,,
 11:49:59.977,d2:03:b8:43:8d:44, 2015-01-01 00:04:54.585, -0.164, 0.987, -0.068, 0.61, 0.427, -0.488, , , , , , , 93.972, 9.229, 10.69, 0.000, 0.000, 0.000,, 0.68314, 0.72043, 0.11899, 0.0072,,,
 11:49:59.977,d2:03:b8:43:8d:44, 2015-01-01 00:04:54.585, -0.156, 0.985, -0.066, 0.671, -0.061, 0.488, , , , , , , 93.977, 9.229, 10.684, 0.000, 0.000, 0.000,, 0.68314, 0.72043, 0.11899, 0.0072,,,
 11:49:59.977,d2:03:b8:43:8d:44, 2015-01-01 00:04:54.585, -0.164, 0.985, -0.067, 0.732, 0.244, -0.061, , , , , , , 93.983, 9.229, 10.684, 0.000, 0.000, 0.000,, 0.68314, 0.72043, 0.11899, 0.0072,,,
 11:49:59.977,d2:03:b8:43:8d:44, 2015-01-01 00:04:54.585, -0.167, 0.985, -0.065, 0.916, -0.061, -0.549, , , , , , , 93.988, 9.234, 10.684, 0.000, 0.000, 0.000,, 0.68314, 0.72043, 0.11899, 0.0072,,,
 11:49:59.978,d2:03:b8:43:8d:44, 2015-01-01 00:04:54.585, -0.17, 0.989, -0.068, 0.732, 0.061, 0.977, , , , , , , 93.999, 9.229, 10.684, 0.000, 0.000, 0.000,, 0.68314, 0.72043, 0.11899, 0.0072,,,
 11:49:59.978,d2:03:b8:43:8d:44, 2015-01-01 00:04:54.585, -0.163, 0.987, -0.066, 0.732, -0.122, 2.38, , , , , , , 94.005, 9.212, 10.679, 0.000, 0.000, 0.000,, 0.68314, 0.72043, 0.11899, 0.0072,,,
 11:49:59.978,d2:03:b8:43:8d:44, 2015-01-01 00:04:54.585, -0.159, 0.986, -0.067, 0.671, -0.061, 3.601, , , , , , , 94.01, 9.179, 10.673, 0.000, 0.000, 0.000,, 0.68314, 0.72043, 0.11899, 0.0072,,,
 11:49:59.978,d2:03:b8:43:8d:44, 2015-01-01 00:04:54.585, -0.156, 0.983, -0.065, 0.916, -0.366, 3.174, , , , , , , 94.016, 9.146, 10.668, 0.000, 0.000, 0.000,, 0.68314, 0.72043, 0.11899, 0.0072,,,
 11:50:00.122,d2:03:b8:43:8d:44, 2015-01-01 00:04:54.585, -0.163, 0.982, -0.067, 1.282, -0.061, 2.625, , , , , , , 94.026, 9.119, 10.662, 0.000, 0.000, 0.000,, 0.68314, 0.72043, 0.11899, 0.0072,,,
 11:50:00.177,d2:03:b8:43:8d:44, 2015-01-01 00:04:54.585, -0.159, 0.984, -0.067, 1.587, -0.671, 2.075, , , , , , , 94.037, 9.097, 10.657, 0.000, 0.000, 0.000,, 0.68314, 0.72043, 0.11899, 0.0072,,,
 11:50:00.177,d2:03:b8:43:8d:44, 2015-01-01 00:04:54.585, -0.152, 0.986, -0.07, 1.709, -0.671, 2.869, , , , , , , 94.054, 9.075, 10.646, 0.000, 0.000, 0.000,, 0.68314, 0.72043, 0.11899, 0.0072,,,
 11:50:00.177,d2:03:b8:43:8d:44, 2015-01-01 00:04:54.585, -0.149, 0.984, -0.069, 1.831, -0.916, 2.197, , , , , , , 94.07, 9.047, 10.635, 0.000, 0.000, 0.000,, 0.68314, 0.72043, 0.11899, 0.0072,,,
 11:50:00.193,d2:03:b8:43:8d:44, 2015-01-01 00:04:54.585, -0.157, 0.985, -0.073, 1.892, -0.305, 0.977, , , , , , , 94.087, 9.031, 10.624, 0.000, 0.000, 0.000,, 0.68079, 0.7225, 0.11978, 0.00644,,,
 11:50:00.193,d2:03:b8:43:8d:44, 2015-01-01 00:04:54.585, -0.166, 0.989, -0.075, 1.404, -0.061, 0.854, , , , , , , 94.103, 9.025, 10.624, 0.000, 0.000, 0.000,, 0.68079, 0.7225, 0.11978, 0.00644,,,
 11:50:00.193,d2:03:b8:43:8d:44, 2015-01-01 00:04:54.585, -0.162, 0.991, -0.076, 0.732, 0, 2.625, , , , , , , 94.109, 9.009, 10.618, 0.000, 0.000, 0.000,, 0.68079, 0.7225, 0.11978, 0.00644,,,
 11:50:00.194,d2:03:b8:43:8d:44, 2015-01-01 00:04:54.585, -0.151, 0.987, -0.071, 0.183, -0.183, 4.517, , , , , , , 94.114, 8.97, 10.613, 0.000, 0.000, 0.000,, 0.68079, 0.7225, 0.11978, 0.00644,,,
 11:50:00.194,d2:03:b8:43:8d:44, 2015-01-01 00:04:54.585, -0.149, 0.981, -0.068, 0.61, -0.061, 3.906, , , , , , , 94.114, 8.926, 10.607, 0.000, 0.000, 0.000,, 0.68079, 0.7225, 0.11978, 0.00644,,,
 11:50:00.194,d2:03:b8:43:8d:44, 2015-01-01 00:04:54.585, -0.155, 0.983, -0.067, 1.099, 0.122, 2.563, , , , , , , 94.125, 8.893, 10.607, 0.000, 0.000, 0.000,, 0.68079, 0.7225, 0.11978, 0.00644,,,
 11:50:00.194,d2:03:b8:43:8d:44, 2015-01-01 00:04:54.585, -0.155, 0.983, -0.066, 1.587, -0.183, 1.709, , , , , , , 94.136, 8.877, 10.602, 0.000, 0.000, 0.000,, 0.68079, 0.7225, 0.11978, 0.00644,,,
 11:50:00.194,d2:03:b8:43:8d:44, 2015-01-01 00:04:54.585, -0.15, 0.986, -0.068, 1.709, -0.549, 1.404, , , , , , , 94.153, 8.86, 10.596, 0.000, 0.000, 0.000,, 0.68079, 0.7225, 0.11978, 0.00644,,,
 11:50:00.195,d2:03:b8:43:8d:44, 2015-01-01 00:04:54.585, -0.142, 0.986, -0.07, 1.709, -0.488, 1.099, , , , , , , 94.164, 8.849, 10.585, 0.000, 0.000, 0.000,, 0.68079, 0.7225, 0.11978, 0.00644,,,
 11:50:00.195,d2:03:b8:43:8d:44, 2015-01-01 00:04:54.585, -0.144, 0.987, -0.072, 1.526, 0.183, 0.183, , , , , , , 94.18, 8.839, 10.585, 0.000, 0.000, 0.000,, 0.68079, 0.7225, 0.11978, 0.00644,,,
 11:50:00.195,d2:03:b8:43:8d:44, 2015-01-01 00:04:54.585, -0.156, 0.985, -0.073, 1.343, 1.038, -1.16, , , , , , , 94.197, 8.844, 10.591, 0.000, 0.000, 0.000,, 0.68079, 0.7225, 0.11978, 0.00644,,,
 11:50:00.196,d2:03:b8:43:8d:44, 2015-01-01 00:04:54.585, -0.164, 0.988, -0.073, 1.221, 0.916, -1.587, , , , , , , 94.208, 8.86, 10.602, 0.000, 0.000, 0.000,, 0.68079, 0.7225, 0.11978, 0.00644,,,
 11:50:00.196,d2:03:b8:43:8d:44, 2015-01-01 00:04:54.585, -0.161, 0.989, -0.074, 0.793, 0.488, -0.183, , , , , , , 94.219, 8.871, 10.607, 0.000, 0.000, 0.000,, 0.68079, 0.7225, 0.11978, 0.00644,,,
 11:50:00.196,d2:03:b8:43:8d:44, 2015-01-01 00:04:54.585, -0.156, 0.99, -0.076, 0.366, 0.183, 0.916, , , , , , , 94.224, 8.866, 10.607, 0.000, 0.000, 0.000,, 0.68079, 0.7225, 0.11978, 0.00644,,,
 11:50:00.196,d2:03:b8:43:8d:44, 2015-01-01 00:04:54.585, -0.15, 0.985, -0.075, 0.061, 0.061, 1.465, , , , , , , 94.224, 8.855, 10.607, 0.000, 0.000, 0.000,, 0.68079, 0.7225, 0.11978, 0.00644,,,
 11:50:00.197,d2:03:b8:43:8d:44, 2015-01-01 00:04:54.585, -0.149, 0.986, -0.074, 0.122, 0.244, 0.977, , , , , , , 94.224, 8.839, 10.607, 0.000, 0.000, 0.000,, 0.68079, 0.7225, 0.11978, 0.00644,,,
 11:50:00.213,d2:03:b8:43:8d:44, 2015-01-01 00:04:54.585, -0.146, 0.985, -0.073, 0.183, 0.244, 0.244, , , , , , , 94.23, 8.833, 10.607, 0.000, 0.000, 0.000,, 0.68079, 0.7225, 0.11978, 0.00644,,,
